"F0","base_word","count_trial_logger","response","response_time","speaker","stop_type","subject_nr","time_experiment","word_choice0_eng","word_choice1_eng","subj_gender","subj_age","subj_region","group","stop_response","stop_response2","word_status"
3,"bama",0,1,25902,"M1","pb",16,5801,"pama","bama","M",20,"SE","P","b","len","asp_word"
2,"paneul",1,1,1351,"M1","pb",16,5801,"paneul","baneul","M",20,"SE","P","b","len","len_word"
3,"pama",2,1,1227,"M1","pb",16,5801,"pama","bama","M",20,"SE","P","b","len","asp_word"
2,"bama",3,1,3768,"M1","pb",16,5801,"pama","bama","M",20,"SE","P","b","len","asp_word"
4,"pama",4,0,1897,"M1","pb",16,5801,"pama","bama","M",20,"SE","P","p","asp","asp_word"
7,"bama",5,0,1375,"M1","pb",16,5801,"pama","bama","M",20,"SE","P","p","asp","asp_word"
1,"paneul",6,1,1207,"M1","pb",16,5801,"paneul","baneul","M",20,"SE","P","b","len","len_word"
1,"pama",7,1,1443,"M1","pb",16,5801,"pama","bama","M",20,"SE","P","b","len","asp_word"
6,"baneul",8,0,1909,"M1","pb",16,5801,"paneul","baneul","M",20,"SE","P","p","asp","len_word"
5,"baneul",9,0,3663,"M1","pb",16,5801,"paneul","baneul","M",20,"SE","P","p","asp","len_word"
6,"bama",10,0,1344,"M1","pb",16,5801,"pama","bama","M",20,"SE","P","p","asp","asp_word"
6,"bama",11,0,1291,"M1","pb",16,5801,"pama","bama","M",20,"SE","P","p","asp","asp_word"
4,"bama",12,1,1323,"M1","pb",16,5801,"pama","bama","M",20,"SE","P","b","len","asp_word"
4,"baneul",13,1,1449,"M1","pb",16,5801,"paneul","baneul","M",20,"SE","P","b","len","len_word"
7,"bama",14,0,1276,"M1","pb",16,5801,"pama","bama","M",20,"SE","P","p","asp","asp_word"
5,"paneul",15,0,1713,"M1","pb",16,5801,"paneul","baneul","M",20,"SE","P","p","asp","len_word"
1,"baneul",16,1,1154,"M1","pb",16,5801,"paneul","baneul","M",20,"SE","P","b","len","len_word"
5,"baneul",17,1,2463,"M1","pb",16,5801,"paneul","baneul","M",20,"SE","P","b","len","len_word"
3,"bama",18,1,867,"M1","pb",16,5801,"pama","bama","M",20,"SE","P","b","len","asp_word"
3,"pama",19,1,1280,"M1","pb",16,5801,"pama","bama","M",20,"SE","P","b","len","asp_word"
4,"paneul",20,1,4145,"M1","pb",16,5801,"paneul","baneul","M",20,"SE","P","b","len","len_word"
4,"bama",21,1,1016,"M1","pb",16,5801,"pama","bama","M",20,"SE","P","b","len","asp_word"
6,"paneul",22,0,1383,"M1","pb",16,5801,"paneul","baneul","M",20,"SE","P","p","asp","len_word"
6,"pama",23,0,1763,"M1","pb",16,5801,"pama","bama","M",20,"SE","P","p","asp","asp_word"
5,"bama",24,0,2408,"M1","pb",16,5801,"pama","bama","M",20,"SE","P","p","asp","asp_word"
7,"paneul",25,0,1680,"M1","pb",16,5801,"paneul","baneul","M",20,"SE","P","p","asp","len_word"
2,"baneul",26,1,1204,"M1","pb",16,5801,"paneul","baneul","M",20,"SE","P","b","len","len_word"
7,"pama",27,0,1167,"M1","pb",16,5801,"pama","bama","M",20,"SE","P","p","asp","asp_word"
2,"pama",28,1,1419,"M1","pb",16,5801,"pama","bama","M",20,"SE","P","b","len","asp_word"
7,"baneul",29,0,1368,"M1","pb",16,5801,"paneul","baneul","M",20,"SE","P","p","asp","len_word"
2,"pama",30,1,961,"M1","pb",16,5801,"pama","bama","M",20,"SE","P","b","len","asp_word"
5,"pama",31,0,1221,"M1","pb",16,5801,"pama","bama","M",20,"SE","P","p","asp","asp_word"
6,"paneul",32,0,1266,"M1","pb",16,5801,"paneul","baneul","M",20,"SE","P","p","asp","len_word"
5,"bama",33,0,1260,"M1","pb",16,5801,"pama","bama","M",20,"SE","P","p","asp","asp_word"
2,"baneul",34,1,1297,"M1","pb",16,5801,"paneul","baneul","M",20,"SE","P","b","len","len_word"
3,"paneul",35,0,1384,"M1","pb",16,5801,"paneul","baneul","M",20,"SE","P","p","asp","len_word"
3,"baneul",36,1,1194,"M1","pb",16,5801,"paneul","baneul","M",20,"SE","P","b","len","len_word"
1,"pama",37,1,1435,"M1","pb",16,5801,"pama","bama","M",20,"SE","P","b","len","asp_word"
3,"paneul",38,1,927,"M1","pb",16,5801,"paneul","baneul","M",20,"SE","P","b","len","len_word"
1,"baneul",39,1,711,"M1","pb",16,5801,"paneul","baneul","M",20,"SE","P","b","len","len_word"
4,"baneul",40,1,897,"M1","pb",16,5801,"paneul","baneul","M",20,"SE","P","b","len","len_word"
7,"baneul",41,0,1216,"M1","pb",16,5801,"paneul","baneul","M",20,"SE","P","p","asp","len_word"
1,"paneul",42,1,913,"M1","pb",16,5801,"paneul","baneul","M",20,"SE","P","b","len","len_word"
1,"bama",43,1,899,"M1","pb",16,5801,"pama","bama","M",20,"SE","P","b","len","asp_word"
7,"pama",44,0,1137,"M1","pb",16,5801,"pama","bama","M",20,"SE","P","p","asp","asp_word"
7,"paneul",45,0,796,"M1","pb",16,5801,"paneul","baneul","M",20,"SE","P","p","asp","len_word"
4,"pama",46,0,873,"M1","pb",16,5801,"pama","bama","M",20,"SE","P","p","asp","asp_word"
5,"pama",47,0,704,"M1","pb",16,5801,"pama","bama","M",20,"SE","P","p","asp","asp_word"
4,"paneul",48,0,882,"M1","pb",16,5801,"paneul","baneul","M",20,"SE","P","p","asp","len_word"
3,"baneul",49,1,1237,"M1","pb",16,5801,"paneul","baneul","M",20,"SE","P","b","len","len_word"
1,"bama",50,1,1034,"M1","pb",16,5801,"pama","bama","M",20,"SE","P","b","len","asp_word"
5,"paneul",51,0,1048,"M1","pb",16,5801,"paneul","baneul","M",20,"SE","P","p","asp","len_word"
6,"pama",52,0,1381,"M1","pb",16,5801,"pama","bama","M",20,"SE","P","p","asp","asp_word"
2,"paneul",53,1,1815,"M1","pb",16,5801,"paneul","baneul","M",20,"SE","P","b","len","len_word"
6,"baneul",54,0,878,"M1","pb",16,5801,"paneul","baneul","M",20,"SE","P","p","asp","len_word"
2,"bama",55,1,1008,"M1","pb",16,5801,"pama","bama","M",20,"SE","P","b","len","asp_word"
3,"domang",56,1,1823,"F1","td",16,5801,"tomang","domang","M",20,"SE","P","d","len","len_word"
1,"tomang",57,1,1089,"F1","td",16,5801,"tomang","domang","M",20,"SE","P","d","len","len_word"
6,"tomang",58,0,960,"F1","td",16,5801,"tomang","domang","M",20,"SE","P","t","asp","len_word"
3,"tongmil",59,1,975,"F1","td",16,5801,"tongmil","dongmil","M",20,"SE","P","d","len","asp_word"
1,"tongmil",60,1,777,"F1","td",16,5801,"tongmil","dongmil","M",20,"SE","P","d","len","asp_word"
7,"domang",61,0,922,"F1","td",16,5801,"tomang","domang","M",20,"SE","P","t","asp","len_word"
1,"domang",62,1,682,"F1","td",16,5801,"tomang","domang","M",20,"SE","P","d","len","len_word"
6,"domang",63,0,569,"F1","td",16,5801,"tomang","domang","M",20,"SE","P","t","asp","len_word"
4,"domang",64,1,688,"F1","td",16,5801,"tomang","domang","M",20,"SE","P","d","len","len_word"
2,"dongmil",65,1,1086,"F1","td",16,5801,"tongmil","dongmil","M",20,"SE","P","d","len","asp_word"
6,"tongmil",66,0,1197,"F1","td",16,5801,"tongmil","dongmil","M",20,"SE","P","t","asp","asp_word"
7,"dongmil",67,0,772,"F1","td",16,5801,"tongmil","dongmil","M",20,"SE","P","t","asp","asp_word"
5,"tomang",68,1,596,"F1","td",16,5801,"tomang","domang","M",20,"SE","P","d","len","len_word"
4,"dongmil",69,1,797,"F1","td",16,5801,"tongmil","dongmil","M",20,"SE","P","d","len","asp_word"
2,"domang",70,1,656,"F1","td",16,5801,"tomang","domang","M",20,"SE","P","d","len","len_word"
5,"dongmil",71,0,760,"F1","td",16,5801,"tongmil","dongmil","M",20,"SE","P","t","asp","asp_word"
7,"tomang",72,0,836,"F1","td",16,5801,"tomang","domang","M",20,"SE","P","t","asp","len_word"
3,"dongmil",73,1,768,"F1","td",16,5801,"tongmil","dongmil","M",20,"SE","P","d","len","asp_word"
2,"domang",74,1,1468,"F1","td",16,5801,"tomang","domang","M",20,"SE","P","d","len","len_word"
3,"tomang",75,1,572,"F1","td",16,5801,"tomang","domang","M",20,"SE","P","d","len","len_word"
2,"tomang",76,1,615,"F1","td",16,5801,"tomang","domang","M",20,"SE","P","d","len","len_word"
4,"dongmil",77,0,1117,"F1","td",16,5801,"tongmil","dongmil","M",20,"SE","P","t","asp","asp_word"
2,"dongmil",78,1,747,"F1","td",16,5801,"tongmil","dongmil","M",20,"SE","P","d","len","asp_word"
6,"dongmil",79,0,889,"F1","td",16,5801,"tongmil","dongmil","M",20,"SE","P","t","asp","asp_word"
5,"tongmil",80,0,823,"F1","td",16,5801,"tongmil","dongmil","M",20,"SE","P","t","asp","asp_word"
6,"dongmil",81,0,643,"F1","td",16,5801,"tongmil","dongmil","M",20,"SE","P","t","asp","asp_word"
4,"domang",82,1,492,"F1","td",16,5801,"tomang","domang","M",20,"SE","P","d","len","len_word"
7,"tomang",83,0,843,"F1","td",16,5801,"tomang","domang","M",20,"SE","P","t","asp","len_word"
4,"tongmil",84,0,1016,"F1","td",16,5801,"tongmil","dongmil","M",20,"SE","P","t","asp","asp_word"
4,"tomang",85,0,804,"F1","td",16,5801,"tomang","domang","M",20,"SE","P","t","asp","len_word"
1,"domang",86,1,1271,"F1","td",16,5801,"tomang","domang","M",20,"SE","P","d","len","len_word"
7,"tongmil",87,0,804,"F1","td",16,5801,"tongmil","dongmil","M",20,"SE","P","t","asp","asp_word"
1,"dongmil",88,1,1042,"F1","td",16,5801,"tongmil","dongmil","M",20,"SE","P","d","len","asp_word"
2,"tongmil",89,1,673,"F1","td",16,5801,"tongmil","dongmil","M",20,"SE","P","d","len","asp_word"
4,"tomang",90,0,614,"F1","td",16,5801,"tomang","domang","M",20,"SE","P","t","asp","len_word"
4,"tongmil",91,0,887,"F1","td",16,5801,"tongmil","dongmil","M",20,"SE","P","t","asp","asp_word"
2,"tongmil",92,1,973,"F1","td",16,5801,"tongmil","dongmil","M",20,"SE","P","d","len","asp_word"
1,"tomang",93,0,643,"F1","td",16,5801,"tomang","domang","M",20,"SE","P","t","asp","len_word"
5,"tongmil",94,1,721,"F1","td",16,5801,"tongmil","dongmil","M",20,"SE","P","d","len","asp_word"
6,"domang",95,1,625,"F1","td",16,5801,"tomang","domang","M",20,"SE","P","d","len","len_word"
5,"domang",96,0,746,"F1","td",16,5801,"tomang","domang","M",20,"SE","P","t","asp","len_word"
3,"dongmil",97,1,1035,"F1","td",16,5801,"tongmil","dongmil","M",20,"SE","P","d","len","asp_word"
3,"domang",98,1,1228,"F1","td",16,5801,"tomang","domang","M",20,"SE","P","d","len","len_word"
1,"dongmil",99,1,677,"F1","td",16,5801,"tongmil","dongmil","M",20,"SE","P","d","len","asp_word"
7,"tongmil",100,0,848,"F1","td",16,5801,"tongmil","dongmil","M",20,"SE","P","t","asp","asp_word"
3,"tomang",101,1,622,"F1","td",16,5801,"tomang","domang","M",20,"SE","P","d","len","len_word"
6,"tongmil",102,0,1194,"F1","td",16,5801,"tongmil","dongmil","M",20,"SE","P","t","asp","asp_word"
1,"tongmil",103,1,1562,"F1","td",16,5801,"tongmil","dongmil","M",20,"SE","P","d","len","asp_word"
5,"domang",104,0,935,"F1","td",16,5801,"tomang","domang","M",20,"SE","P","t","asp","len_word"
2,"tomang",105,0,1284,"F1","td",16,5801,"tomang","domang","M",20,"SE","P","t","asp","len_word"
5,"tomang",106,0,803,"F1","td",16,5801,"tomang","domang","M",20,"SE","P","t","asp","len_word"
7,"dongmil",107,0,983,"F1","td",16,5801,"tongmil","dongmil","M",20,"SE","P","t","asp","asp_word"
7,"domang",108,0,609,"F1","td",16,5801,"tomang","domang","M",20,"SE","P","t","asp","len_word"
3,"tongmil",109,0,712,"F1","td",16,5801,"tongmil","dongmil","M",20,"SE","P","t","asp","asp_word"
6,"tomang",110,0,642,"F1","td",16,5801,"tomang","domang","M",20,"SE","P","t","asp","len_word"
5,"dongmil",111,0,838,"F1","td",16,5801,"tongmil","dongmil","M",20,"SE","P","t","asp","asp_word"
7,"paneul",0,0,3468,"M1","pb",17,4609,"paneul","baneul","M",20,"GG","P","p","asp","len_word"
1,"baneul",1,1,1552,"M1","pb",17,4609,"paneul","baneul","M",20,"GG","P","b","len","len_word"
6,"paneul",2,0,2490,"M1","pb",17,4609,"paneul","baneul","M",20,"GG","P","p","asp","len_word"
7,"bama",3,0,1989,"M1","pb",17,4609,"pama","bama","M",20,"GG","P","p","asp","asp_word"
1,"bama",4,1,1195,"M1","pb",17,4609,"pama","bama","M",20,"GG","P","b","len","asp_word"
2,"baneul",5,1,3697,"M1","pb",17,4609,"paneul","baneul","M",20,"GG","P","b","len","len_word"
4,"pama",6,0,3488,"M1","pb",17,4609,"pama","bama","M",20,"GG","P","p","asp","asp_word"
4,"bama",7,1,3512,"M1","pb",17,4609,"pama","bama","M",20,"GG","P","b","len","asp_word"
2,"pama",8,1,1550,"M1","pb",17,4609,"pama","bama","M",20,"GG","P","b","len","asp_word"
4,"paneul",9,1,13404,"M1","pb",17,4609,"paneul","baneul","M",20,"GG","P","b","len","len_word"
6,"baneul",10,0,1655,"M1","pb",17,4609,"paneul","baneul","M",20,"GG","P","p","asp","len_word"
6,"bama",11,0,1308,"M1","pb",17,4609,"pama","bama","M",20,"GG","P","p","asp","asp_word"
6,"pama",12,0,1526,"M1","pb",17,4609,"pama","bama","M",20,"GG","P","p","asp","asp_word"
6,"baneul",13,0,1700,"M1","pb",17,4609,"paneul","baneul","M",20,"GG","P","p","asp","len_word"
4,"bama",14,1,1682,"M1","pb",17,4609,"pama","bama","M",20,"GG","P","b","len","asp_word"
1,"bama",15,1,1413,"M1","pb",17,4609,"pama","bama","M",20,"GG","P","b","len","asp_word"
3,"paneul",16,1,1222,"M1","pb",17,4609,"paneul","baneul","M",20,"GG","P","b","len","len_word"
2,"paneul",17,1,898,"M1","pb",17,4609,"paneul","baneul","M",20,"GG","P","b","len","len_word"
7,"pama",18,0,1080,"M1","pb",17,4609,"pama","bama","M",20,"GG","P","p","asp","asp_word"
5,"bama",19,0,1422,"M1","pb",17,4609,"pama","bama","M",20,"GG","P","p","asp","asp_word"
2,"baneul",20,1,967,"M1","pb",17,4609,"paneul","baneul","M",20,"GG","P","b","len","len_word"
2,"bama",21,1,2119,"M1","pb",17,4609,"pama","bama","M",20,"GG","P","b","len","asp_word"
2,"pama",22,1,3380,"M1","pb",17,4609,"pama","bama","M",20,"GG","P","b","len","asp_word"
6,"paneul",23,0,986,"M1","pb",17,4609,"paneul","baneul","M",20,"GG","P","p","asp","len_word"
5,"bama",24,0,1321,"M1","pb",17,4609,"pama","bama","M",20,"GG","P","p","asp","asp_word"
4,"baneul",25,0,3119,"M1","pb",17,4609,"paneul","baneul","M",20,"GG","P","p","asp","len_word"
3,"bama",26,1,1151,"M1","pb",17,4609,"pama","bama","M",20,"GG","P","b","len","asp_word"
5,"baneul",27,1,3850,"M1","pb",17,4609,"paneul","baneul","M",20,"GG","P","b","len","len_word"
3,"baneul",28,1,1091,"M1","pb",17,4609,"paneul","baneul","M",20,"GG","P","b","len","len_word"
3,"pama",29,1,2915,"M1","pb",17,4609,"pama","bama","M",20,"GG","P","b","len","asp_word"
1,"paneul",30,1,862,"M1","pb",17,4609,"paneul","baneul","M",20,"GG","P","b","len","len_word"
4,"pama",31,0,1126,"M1","pb",17,4609,"pama","bama","M",20,"GG","P","p","asp","asp_word"
4,"baneul",32,1,1439,"M1","pb",17,4609,"paneul","baneul","M",20,"GG","P","b","len","len_word"
2,"bama",33,1,916,"M1","pb",17,4609,"pama","bama","M",20,"GG","P","b","len","asp_word"
7,"pama",34,0,742,"M1","pb",17,4609,"pama","bama","M",20,"GG","P","p","asp","asp_word"
5,"baneul",35,0,1074,"M1","pb",17,4609,"paneul","baneul","M",20,"GG","P","p","asp","len_word"
6,"bama",36,0,878,"M1","pb",17,4609,"pama","bama","M",20,"GG","P","p","asp","asp_word"
7,"paneul",37,0,1526,"M1","pb",17,4609,"paneul","baneul","M",20,"GG","P","p","asp","len_word"
1,"pama",38,1,959,"M1","pb",17,4609,"pama","bama","M",20,"GG","P","b","len","asp_word"
7,"baneul",39,0,1038,"M1","pb",17,4609,"paneul","baneul","M",20,"GG","P","p","asp","len_word"
3,"pama",40,0,2954,"M1","pb",17,4609,"pama","bama","M",20,"GG","P","p","asp","asp_word"
5,"paneul",41,0,1058,"M1","pb",17,4609,"paneul","baneul","M",20,"GG","P","p","asp","len_word"
1,"paneul",42,1,926,"M1","pb",17,4609,"paneul","baneul","M",20,"GG","P","b","len","len_word"
7,"baneul",43,0,1077,"M1","pb",17,4609,"paneul","baneul","M",20,"GG","P","p","asp","len_word"
3,"bama",44,1,1061,"M1","pb",17,4609,"pama","bama","M",20,"GG","P","b","len","asp_word"
5,"pama",45,0,1081,"M1","pb",17,4609,"pama","bama","M",20,"GG","P","p","asp","asp_word"
6,"pama",46,0,883,"M1","pb",17,4609,"pama","bama","M",20,"GG","P","p","asp","asp_word"
3,"baneul",47,1,905,"M1","pb",17,4609,"paneul","baneul","M",20,"GG","P","b","len","len_word"
5,"pama",48,0,1009,"M1","pb",17,4609,"pama","bama","M",20,"GG","P","p","asp","asp_word"
1,"baneul",49,1,1057,"M1","pb",17,4609,"paneul","baneul","M",20,"GG","P","b","len","len_word"
5,"paneul",50,0,1038,"M1","pb",17,4609,"paneul","baneul","M",20,"GG","P","p","asp","len_word"
4,"paneul",51,0,1412,"M1","pb",17,4609,"paneul","baneul","M",20,"GG","P","p","asp","len_word"
7,"bama",52,0,929,"M1","pb",17,4609,"pama","bama","M",20,"GG","P","p","asp","asp_word"
1,"pama",53,1,1077,"M1","pb",17,4609,"pama","bama","M",20,"GG","P","b","len","asp_word"
3,"paneul",54,1,835,"M1","pb",17,4609,"paneul","baneul","M",20,"GG","P","b","len","len_word"
2,"paneul",55,1,758,"M1","pb",17,4609,"paneul","baneul","M",20,"GG","P","b","len","len_word"
4,"domang",56,1,2889,"F1","td",17,4609,"tomang","domang","M",20,"GG","P","d","len","len_word"
2,"tomang",57,1,34687,"F1","td",17,4609,"tomang","domang","M",20,"GG","P","d","len","len_word"
7,"tongmil",58,0,29553,"F1","td",17,4609,"tongmil","dongmil","M",20,"GG","P","t","asp","asp_word"
3,"tongmil",59,0,2589,"F1","td",17,4609,"tongmil","dongmil","M",20,"GG","P","t","asp","asp_word"
1,"tomang",60,1,1368,"F1","td",17,4609,"tomang","domang","M",20,"GG","P","d","len","len_word"
4,"tomang",61,0,1486,"F1","td",17,4609,"tomang","domang","M",20,"GG","P","t","asp","len_word"
7,"domang",62,0,5998,"F1","td",17,4609,"tomang","domang","M",20,"GG","P","t","asp","len_word"
5,"domang",63,0,3895,"F1","td",17,4609,"tomang","domang","M",20,"GG","P","t","asp","len_word"
1,"domang",64,1,937,"F1","td",17,4609,"tomang","domang","M",20,"GG","P","d","len","len_word"
4,"tongmil",65,0,2912,"F1","td",17,4609,"tongmil","dongmil","M",20,"GG","P","t","asp","asp_word"
1,"domang",66,1,2352,"F1","td",17,4609,"tomang","domang","M",20,"GG","P","d","len","len_word"
4,"dongmil",67,1,7254,"F1","td",17,4609,"tongmil","dongmil","M",20,"GG","P","d","len","asp_word"
7,"tongmil",68,0,1040,"F1","td",17,4609,"tongmil","dongmil","M",20,"GG","P","t","asp","asp_word"
1,"tomang",69,1,958,"F1","td",17,4609,"tomang","domang","M",20,"GG","P","d","len","len_word"
5,"tomang",70,0,838,"F1","td",17,4609,"tomang","domang","M",20,"GG","P","t","asp","len_word"
2,"dongmil",71,1,1293,"F1","td",17,4609,"tongmil","dongmil","M",20,"GG","P","d","len","asp_word"
5,"dongmil",72,0,1539,"F1","td",17,4609,"tongmil","dongmil","M",20,"GG","P","t","asp","asp_word"
3,"tomang",73,1,2484,"F1","td",17,4609,"tomang","domang","M",20,"GG","P","d","len","len_word"
6,"dongmil",74,0,1066,"F1","td",17,4609,"tongmil","dongmil","M",20,"GG","P","t","asp","asp_word"
3,"tomang",75,1,973,"F1","td",17,4609,"tomang","domang","M",20,"GG","P","d","len","len_word"
1,"dongmil",76,1,1079,"F1","td",17,4609,"tongmil","dongmil","M",20,"GG","P","d","len","asp_word"
3,"dongmil",77,1,1086,"F1","td",17,4609,"tongmil","dongmil","M",20,"GG","P","d","len","asp_word"
7,"tomang",78,0,927,"F1","td",17,4609,"tomang","domang","M",20,"GG","P","t","asp","len_word"
3,"tongmil",79,0,2214,"F1","td",17,4609,"tongmil","dongmil","M",20,"GG","P","t","asp","asp_word"
7,"tomang",80,0,849,"F1","td",17,4609,"tomang","domang","M",20,"GG","P","t","asp","len_word"
2,"tongmil",81,1,1703,"F1","td",17,4609,"tongmil","dongmil","M",20,"GG","P","d","len","asp_word"
4,"tongmil",82,0,968,"F1","td",17,4609,"tongmil","dongmil","M",20,"GG","P","t","asp","asp_word"
2,"dongmil",83,1,1517,"F1","td",17,4609,"tongmil","dongmil","M",20,"GG","P","d","len","asp_word"
1,"tongmil",84,1,993,"F1","td",17,4609,"tongmil","dongmil","M",20,"GG","P","d","len","asp_word"
7,"dongmil",85,0,1039,"F1","td",17,4609,"tongmil","dongmil","M",20,"GG","P","t","asp","asp_word"
4,"tomang",86,0,929,"F1","td",17,4609,"tomang","domang","M",20,"GG","P","t","asp","len_word"
4,"domang",87,1,960,"F1","td",17,4609,"tomang","domang","M",20,"GG","P","d","len","len_word"
2,"tomang",88,1,814,"F1","td",17,4609,"tomang","domang","M",20,"GG","P","d","len","len_word"
5,"tongmil",89,0,906,"F1","td",17,4609,"tongmil","dongmil","M",20,"GG","P","t","asp","asp_word"
5,"dongmil",90,0,952,"F1","td",17,4609,"tongmil","dongmil","M",20,"GG","P","t","asp","asp_word"
6,"domang",91,0,788,"F1","td",17,4609,"tomang","domang","M",20,"GG","P","t","asp","len_word"
2,"tongmil",92,0,1325,"F1","td",17,4609,"tongmil","dongmil","M",20,"GG","P","t","asp","asp_word"
4,"dongmil",93,0,1600,"F1","td",17,4609,"tongmil","dongmil","M",20,"GG","P","t","asp","asp_word"
6,"tomang",94,0,804,"F1","td",17,4609,"tomang","domang","M",20,"GG","P","t","asp","len_word"
3,"dongmil",95,1,1134,"F1","td",17,4609,"tongmil","dongmil","M",20,"GG","P","d","len","asp_word"
1,"dongmil",96,1,914,"F1","td",17,4609,"tongmil","dongmil","M",20,"GG","P","d","len","asp_word"
5,"tomang",97,0,884,"F1","td",17,4609,"tomang","domang","M",20,"GG","P","t","asp","len_word"
6,"tongmil",98,0,902,"F1","td",17,4609,"tongmil","dongmil","M",20,"GG","P","t","asp","asp_word"
3,"domang",99,1,1495,"F1","td",17,4609,"tomang","domang","M",20,"GG","P","d","len","len_word"
2,"domang",100,1,906,"F1","td",17,4609,"tomang","domang","M",20,"GG","P","d","len","len_word"
6,"tongmil",101,0,858,"F1","td",17,4609,"tongmil","dongmil","M",20,"GG","P","t","asp","asp_word"
5,"tongmil",102,0,1091,"F1","td",17,4609,"tongmil","dongmil","M",20,"GG","P","t","asp","asp_word"
7,"domang",103,0,1006,"F1","td",17,4609,"tomang","domang","M",20,"GG","P","t","asp","len_word"
1,"tongmil",104,1,1328,"F1","td",17,4609,"tongmil","dongmil","M",20,"GG","P","d","len","asp_word"
2,"domang",105,1,782,"F1","td",17,4609,"tomang","domang","M",20,"GG","P","d","len","len_word"
7,"dongmil",106,0,862,"F1","td",17,4609,"tongmil","dongmil","M",20,"GG","P","t","asp","asp_word"
6,"tomang",107,0,993,"F1","td",17,4609,"tomang","domang","M",20,"GG","P","t","asp","len_word"
6,"dongmil",108,0,1179,"F1","td",17,4609,"tongmil","dongmil","M",20,"GG","P","t","asp","asp_word"
6,"domang",109,0,1371,"F1","td",17,4609,"tomang","domang","M",20,"GG","P","t","asp","len_word"
3,"domang",110,1,1004,"F1","td",17,4609,"tomang","domang","M",20,"GG","P","d","len","len_word"
5,"domang",111,1,914,"F1","td",17,4609,"tomang","domang","M",20,"GG","P","d","len","len_word"
5,"baneul",0,1,915,"M1","pb",18,3802,"paneul","baneul","F",20,"GN","P","b","len","len_word"
3,"pama",1,0,935,"M1","pb",18,3802,"pama","bama","F",20,"GN","P","p","asp","asp_word"
5,"paneul",2,1,1141,"M1","pb",18,3802,"paneul","baneul","F",20,"GN","P","b","len","len_word"
3,"bama",3,0,1166,"M1","pb",18,3802,"pama","bama","F",20,"GN","P","p","asp","asp_word"
7,"paneul",4,0,1117,"M1","pb",18,3802,"paneul","baneul","F",20,"GN","P","p","asp","len_word"
6,"bama",5,0,1119,"M1","pb",18,3802,"pama","bama","F",20,"GN","P","p","asp","asp_word"
2,"bama",6,1,1248,"M1","pb",18,3802,"pama","bama","F",20,"GN","P","b","len","asp_word"
7,"pama",7,0,815,"M1","pb",18,3802,"pama","bama","F",20,"GN","P","p","asp","asp_word"
5,"bama",8,0,1211,"M1","pb",18,3802,"pama","bama","F",20,"GN","P","p","asp","asp_word"
2,"bama",9,1,943,"M1","pb",18,3802,"pama","bama","F",20,"GN","P","b","len","asp_word"
5,"pama",10,0,869,"M1","pb",18,3802,"pama","bama","F",20,"GN","P","p","asp","asp_word"
4,"paneul",11,1,870,"M1","pb",18,3802,"paneul","baneul","F",20,"GN","P","b","len","len_word"
1,"paneul",12,1,973,"M1","pb",18,3802,"paneul","baneul","F",20,"GN","P","b","len","len_word"
4,"pama",13,0,866,"M1","pb",18,3802,"pama","bama","F",20,"GN","P","p","asp","asp_word"
7,"baneul",14,0,1408,"M1","pb",18,3802,"paneul","baneul","F",20,"GN","P","p","asp","len_word"
7,"pama",15,0,803,"M1","pb",18,3802,"pama","bama","F",20,"GN","P","p","asp","asp_word"
2,"pama",16,0,852,"M1","pb",18,3802,"pama","bama","F",20,"GN","P","p","asp","asp_word"
6,"bama",17,0,961,"M1","pb",18,3802,"pama","bama","F",20,"GN","P","p","asp","asp_word"
6,"baneul",18,1,1127,"M1","pb",18,3802,"paneul","baneul","F",20,"GN","P","b","len","len_word"
6,"baneul",19,1,865,"M1","pb",18,3802,"paneul","baneul","F",20,"GN","P","b","len","len_word"
1,"bama",20,1,1023,"M1","pb",18,3802,"pama","bama","F",20,"GN","P","b","len","asp_word"
3,"paneul",21,1,921,"M1","pb",18,3802,"paneul","baneul","F",20,"GN","P","b","len","len_word"
1,"baneul",22,1,1001,"M1","pb",18,3802,"paneul","baneul","F",20,"GN","P","b","len","len_word"
4,"bama",23,0,1075,"M1","pb",18,3802,"pama","bama","F",20,"GN","P","p","asp","asp_word"
5,"bama",24,0,1032,"M1","pb",18,3802,"pama","bama","F",20,"GN","P","p","asp","asp_word"
1,"pama",25,0,1119,"M1","pb",18,3802,"pama","bama","F",20,"GN","P","p","asp","asp_word"
3,"baneul",26,1,868,"M1","pb",18,3802,"paneul","baneul","F",20,"GN","P","b","len","len_word"
2,"paneul",27,1,858,"M1","pb",18,3802,"paneul","baneul","F",20,"GN","P","b","len","len_word"
2,"baneul",28,1,1167,"M1","pb",18,3802,"paneul","baneul","F",20,"GN","P","b","len","len_word"
4,"baneul",29,1,918,"M1","pb",18,3802,"paneul","baneul","F",20,"GN","P","b","len","len_word"
3,"bama",30,0,2162,"M1","pb",18,3802,"pama","bama","F",20,"GN","P","p","asp","asp_word"
6,"paneul",31,0,1493,"M1","pb",18,3802,"paneul","baneul","F",20,"GN","P","p","asp","len_word"
7,"bama",32,0,907,"M1","pb",18,3802,"pama","bama","F",20,"GN","P","p","asp","asp_word"
5,"baneul",33,1,1125,"M1","pb",18,3802,"paneul","baneul","F",20,"GN","P","b","len","len_word"
1,"paneul",34,1,829,"M1","pb",18,3802,"paneul","baneul","F",20,"GN","P","b","len","len_word"
4,"baneul",35,1,948,"M1","pb",18,3802,"paneul","baneul","F",20,"GN","P","b","len","len_word"
1,"bama",36,1,872,"M1","pb",18,3802,"pama","bama","F",20,"GN","P","b","len","asp_word"
3,"pama",37,0,883,"M1","pb",18,3802,"pama","bama","F",20,"GN","P","p","asp","asp_word"
2,"pama",38,0,850,"M1","pb",18,3802,"pama","bama","F",20,"GN","P","p","asp","asp_word"
4,"paneul",39,1,903,"M1","pb",18,3802,"paneul","baneul","F",20,"GN","P","b","len","len_word"
3,"baneul",40,1,897,"M1","pb",18,3802,"paneul","baneul","F",20,"GN","P","b","len","len_word"
6,"paneul",41,0,1584,"M1","pb",18,3802,"paneul","baneul","F",20,"GN","P","p","asp","len_word"
7,"bama",42,0,913,"M1","pb",18,3802,"pama","bama","F",20,"GN","P","p","asp","asp_word"
5,"paneul",43,0,1500,"M1","pb",18,3802,"paneul","baneul","F",20,"GN","P","p","asp","len_word"
4,"pama",44,0,1064,"M1","pb",18,3802,"pama","bama","F",20,"GN","P","p","asp","asp_word"
6,"pama",45,0,823,"M1","pb",18,3802,"pama","bama","F",20,"GN","P","p","asp","asp_word"
3,"paneul",46,1,1164,"M1","pb",18,3802,"paneul","baneul","F",20,"GN","P","b","len","len_word"
4,"bama",47,0,1259,"M1","pb",18,3802,"pama","bama","F",20,"GN","P","p","asp","asp_word"
2,"paneul",48,1,1014,"M1","pb",18,3802,"paneul","baneul","F",20,"GN","P","b","len","len_word"
1,"baneul",49,1,937,"M1","pb",18,3802,"paneul","baneul","F",20,"GN","P","b","len","len_word"
1,"pama",50,0,858,"M1","pb",18,3802,"pama","bama","F",20,"GN","P","p","asp","asp_word"
2,"baneul",51,1,909,"M1","pb",18,3802,"paneul","baneul","F",20,"GN","P","b","len","len_word"
5,"pama",52,0,1135,"M1","pb",18,3802,"pama","bama","F",20,"GN","P","p","asp","asp_word"
7,"paneul",53,0,1600,"M1","pb",18,3802,"paneul","baneul","F",20,"GN","P","p","asp","len_word"
6,"pama",54,0,866,"M1","pb",18,3802,"pama","bama","F",20,"GN","P","p","asp","asp_word"
7,"baneul",55,1,1563,"M1","pb",18,3802,"paneul","baneul","F",20,"GN","P","b","len","len_word"
4,"domang",56,1,976,"F1","td",18,3802,"tomang","domang","F",20,"GN","P","d","len","len_word"
5,"domang",57,1,1344,"F1","td",18,3802,"tomang","domang","F",20,"GN","P","d","len","len_word"
4,"tongmil",58,0,1845,"F1","td",18,3802,"tongmil","dongmil","F",20,"GN","P","t","asp","asp_word"
5,"tomang",59,0,1049,"F1","td",18,3802,"tomang","domang","F",20,"GN","P","t","asp","len_word"
1,"domang",60,1,862,"F1","td",18,3802,"tomang","domang","F",20,"GN","P","d","len","len_word"
3,"tomang",61,0,1157,"F1","td",18,3802,"tomang","domang","F",20,"GN","P","t","asp","len_word"
4,"tomang",62,0,735,"F1","td",18,3802,"tomang","domang","F",20,"GN","P","t","asp","len_word"
5,"tongmil",63,0,1184,"F1","td",18,3802,"tongmil","dongmil","F",20,"GN","P","t","asp","asp_word"
6,"tomang",64,0,796,"F1","td",18,3802,"tomang","domang","F",20,"GN","P","t","asp","len_word"
7,"dongmil",65,0,1107,"F1","td",18,3802,"tongmil","dongmil","F",20,"GN","P","t","asp","asp_word"
1,"tomang",66,1,784,"F1","td",18,3802,"tomang","domang","F",20,"GN","P","d","len","len_word"
2,"tongmil",67,0,1079,"F1","td",18,3802,"tongmil","dongmil","F",20,"GN","P","t","asp","asp_word"
4,"tongmil",68,0,1066,"F1","td",18,3802,"tongmil","dongmil","F",20,"GN","P","t","asp","asp_word"
3,"tomang",69,0,1015,"F1","td",18,3802,"tomang","domang","F",20,"GN","P","t","asp","len_word"
5,"tomang",70,0,793,"F1","td",18,3802,"tomang","domang","F",20,"GN","P","t","asp","len_word"
4,"dongmil",71,0,2022,"F1","td",18,3802,"tongmil","dongmil","F",20,"GN","P","t","asp","asp_word"
4,"dongmil",72,1,982,"F1","td",18,3802,"tongmil","dongmil","F",20,"GN","P","d","len","asp_word"
2,"tongmil",73,0,869,"F1","td",18,3802,"tongmil","dongmil","F",20,"GN","P","t","asp","asp_word"
3,"tongmil",74,0,876,"F1","td",18,3802,"tongmil","dongmil","F",20,"GN","P","t","asp","asp_word"
6,"tongmil",75,0,703,"F1","td",18,3802,"tongmil","dongmil","F",20,"GN","P","t","asp","asp_word"
7,"domang",76,0,970,"F1","td",18,3802,"tomang","domang","F",20,"GN","P","t","asp","len_word"
6,"tomang",77,0,862,"F1","td",18,3802,"tomang","domang","F",20,"GN","P","t","asp","len_word"
7,"tomang",78,0,596,"F1","td",18,3802,"tomang","domang","F",20,"GN","P","t","asp","len_word"
7,"dongmil",79,0,1005,"F1","td",18,3802,"tongmil","dongmil","F",20,"GN","P","t","asp","asp_word"
3,"dongmil",80,1,1011,"F1","td",18,3802,"tongmil","dongmil","F",20,"GN","P","d","len","asp_word"
2,"tomang",81,1,1709,"F1","td",18,3802,"tomang","domang","F",20,"GN","P","d","len","len_word"
6,"domang",82,0,889,"F1","td",18,3802,"tomang","domang","F",20,"GN","P","t","asp","len_word"
3,"domang",83,1,994,"F1","td",18,3802,"tomang","domang","F",20,"GN","P","d","len","len_word"
4,"domang",84,1,757,"F1","td",18,3802,"tomang","domang","F",20,"GN","P","d","len","len_word"
2,"domang",85,1,843,"F1","td",18,3802,"tomang","domang","F",20,"GN","P","d","len","len_word"
7,"tongmil",86,0,1010,"F1","td",18,3802,"tongmil","dongmil","F",20,"GN","P","t","asp","asp_word"
1,"dongmil",87,1,1081,"F1","td",18,3802,"tongmil","dongmil","F",20,"GN","P","d","len","asp_word"
4,"tomang",88,0,1228,"F1","td",18,3802,"tomang","domang","F",20,"GN","P","t","asp","len_word"
5,"tongmil",89,0,1181,"F1","td",18,3802,"tongmil","dongmil","F",20,"GN","P","t","asp","asp_word"
6,"dongmil",90,0,971,"F1","td",18,3802,"tongmil","dongmil","F",20,"GN","P","t","asp","asp_word"
6,"dongmil",91,0,692,"F1","td",18,3802,"tongmil","dongmil","F",20,"GN","P","t","asp","asp_word"
5,"dongmil",92,1,908,"F1","td",18,3802,"tongmil","dongmil","F",20,"GN","P","d","len","asp_word"
1,"dongmil",93,1,929,"F1","td",18,3802,"tongmil","dongmil","F",20,"GN","P","d","len","asp_word"
5,"domang",94,1,1524,"F1","td",18,3802,"tomang","domang","F",20,"GN","P","d","len","len_word"
2,"dongmil",95,1,1181,"F1","td",18,3802,"tongmil","dongmil","F",20,"GN","P","d","len","asp_word"
7,"tongmil",96,0,772,"F1","td",18,3802,"tongmil","dongmil","F",20,"GN","P","t","asp","asp_word"
2,"tomang",97,1,1063,"F1","td",18,3802,"tomang","domang","F",20,"GN","P","d","len","len_word"
2,"dongmil",98,1,1129,"F1","td",18,3802,"tongmil","dongmil","F",20,"GN","P","d","len","asp_word"
1,"tongmil",99,1,1068,"F1","td",18,3802,"tongmil","dongmil","F",20,"GN","P","d","len","asp_word"
1,"tomang",100,1,1147,"F1","td",18,3802,"tomang","domang","F",20,"GN","P","d","len","len_word"
3,"tongmil",101,0,951,"F1","td",18,3802,"tongmil","dongmil","F",20,"GN","P","t","asp","asp_word"
3,"domang",102,1,1414,"F1","td",18,3802,"tomang","domang","F",20,"GN","P","d","len","len_word"
1,"domang",103,1,983,"F1","td",18,3802,"tomang","domang","F",20,"GN","P","d","len","len_word"
3,"dongmil",104,0,1303,"F1","td",18,3802,"tongmil","dongmil","F",20,"GN","P","t","asp","asp_word"
7,"tomang",105,0,813,"F1","td",18,3802,"tomang","domang","F",20,"GN","P","t","asp","len_word"
2,"domang",106,1,1010,"F1","td",18,3802,"tomang","domang","F",20,"GN","P","d","len","len_word"
1,"tongmil",107,0,1122,"F1","td",18,3802,"tongmil","dongmil","F",20,"GN","P","t","asp","asp_word"
6,"tongmil",108,0,1008,"F1","td",18,3802,"tongmil","dongmil","F",20,"GN","P","t","asp","asp_word"
6,"domang",109,0,1014,"F1","td",18,3802,"tomang","domang","F",20,"GN","P","t","asp","len_word"
5,"dongmil",110,0,1039,"F1","td",18,3802,"tongmil","dongmil","F",20,"GN","P","t","asp","asp_word"
7,"domang",111,0,776,"F1","td",18,3802,"tomang","domang","F",20,"GN","P","t","asp","len_word"
1,"bama",0,0,3180,"M1","pb",19,10045,"pama","bama","NB",20,"JN","P","p","asp","asp_word"
7,"paneul",1,0,1204,"M1","pb",19,10045,"paneul","baneul","NB",20,"JN","P","p","asp","len_word"
4,"paneul",2,1,1306,"M1","pb",19,10045,"paneul","baneul","NB",20,"JN","P","b","len","len_word"
7,"pama",3,0,1074,"M1","pb",19,10045,"pama","bama","NB",20,"JN","P","p","asp","asp_word"
2,"paneul",4,1,1145,"M1","pb",19,10045,"paneul","baneul","NB",20,"JN","P","b","len","len_word"
4,"baneul",5,1,988,"M1","pb",19,10045,"paneul","baneul","NB",20,"JN","P","b","len","len_word"
5,"pama",6,0,916,"M1","pb",19,10045,"pama","bama","NB",20,"JN","P","p","asp","asp_word"
5,"bama",7,0,768,"M1","pb",19,10045,"pama","bama","NB",20,"JN","P","p","asp","asp_word"
5,"bama",8,0,920,"M1","pb",19,10045,"pama","bama","NB",20,"JN","P","p","asp","asp_word"
3,"baneul",9,1,2253,"M1","pb",19,10045,"paneul","baneul","NB",20,"JN","P","b","len","len_word"
2,"pama",10,0,1324,"M1","pb",19,10045,"pama","bama","NB",20,"JN","P","p","asp","asp_word"
3,"paneul",11,1,1112,"M1","pb",19,10045,"paneul","baneul","NB",20,"JN","P","b","len","len_word"
3,"bama",12,1,1363,"M1","pb",19,10045,"pama","bama","NB",20,"JN","P","b","len","asp_word"
5,"paneul",13,0,1050,"M1","pb",19,10045,"paneul","baneul","NB",20,"JN","P","p","asp","len_word"
2,"bama",14,1,839,"M1","pb",19,10045,"pama","bama","NB",20,"JN","P","b","len","asp_word"
1,"pama",15,1,656,"M1","pb",19,10045,"pama","bama","NB",20,"JN","P","b","len","asp_word"
4,"baneul",16,1,1380,"M1","pb",19,10045,"paneul","baneul","NB",20,"JN","P","b","len","len_word"
2,"baneul",17,1,748,"M1","pb",19,10045,"paneul","baneul","NB",20,"JN","P","b","len","len_word"
6,"paneul",18,0,648,"M1","pb",19,10045,"paneul","baneul","NB",20,"JN","P","p","asp","len_word"
3,"paneul",19,1,1712,"M1","pb",19,10045,"paneul","baneul","NB",20,"JN","P","b","len","len_word"
5,"paneul",20,0,785,"M1","pb",19,10045,"paneul","baneul","NB",20,"JN","P","p","asp","len_word"
7,"baneul",21,0,1073,"M1","pb",19,10045,"paneul","baneul","NB",20,"JN","P","p","asp","len_word"
1,"paneul",22,1,864,"M1","pb",19,10045,"paneul","baneul","NB",20,"JN","P","b","len","len_word"
6,"baneul",23,0,1035,"M1","pb",19,10045,"paneul","baneul","NB",20,"JN","P","p","asp","len_word"
7,"baneul",24,0,841,"M1","pb",19,10045,"paneul","baneul","NB",20,"JN","P","p","asp","len_word"
7,"bama",25,0,789,"M1","pb",19,10045,"pama","bama","NB",20,"JN","P","p","asp","asp_word"
6,"baneul",26,0,1182,"M1","pb",19,10045,"paneul","baneul","NB",20,"JN","P","p","asp","len_word"
7,"paneul",27,0,751,"M1","pb",19,10045,"paneul","baneul","NB",20,"JN","P","p","asp","len_word"
6,"bama",28,0,922,"M1","pb",19,10045,"pama","bama","NB",20,"JN","P","p","asp","asp_word"
1,"bama",29,1,614,"M1","pb",19,10045,"pama","bama","NB",20,"JN","P","b","len","asp_word"
4,"pama",30,0,687,"M1","pb",19,10045,"pama","bama","NB",20,"JN","P","p","asp","asp_word"
6,"pama",31,0,1134,"M1","pb",19,10045,"pama","bama","NB",20,"JN","P","p","asp","asp_word"
4,"pama",32,0,868,"M1","pb",19,10045,"pama","bama","NB",20,"JN","P","p","asp","asp_word"
4,"bama",33,1,914,"M1","pb",19,10045,"pama","bama","NB",20,"JN","P","b","len","asp_word"
5,"pama",34,0,629,"M1","pb",19,10045,"pama","bama","NB",20,"JN","P","p","asp","asp_word"
6,"paneul",35,0,1017,"M1","pb",19,10045,"paneul","baneul","NB",20,"JN","P","p","asp","len_word"
1,"baneul",36,1,777,"M1","pb",19,10045,"paneul","baneul","NB",20,"JN","P","b","len","len_word"
6,"bama",37,0,659,"M1","pb",19,10045,"pama","bama","NB",20,"JN","P","p","asp","asp_word"
2,"pama",38,1,682,"M1","pb",19,10045,"pama","bama","NB",20,"JN","P","b","len","asp_word"
3,"pama",39,0,844,"M1","pb",19,10045,"pama","bama","NB",20,"JN","P","p","asp","asp_word"
1,"pama",40,1,776,"M1","pb",19,10045,"pama","bama","NB",20,"JN","P","b","len","asp_word"
1,"baneul",41,1,671,"M1","pb",19,10045,"paneul","baneul","NB",20,"JN","P","b","len","len_word"
7,"pama",42,0,653,"M1","pb",19,10045,"pama","bama","NB",20,"JN","P","p","asp","asp_word"
6,"pama",43,0,717,"M1","pb",19,10045,"pama","bama","NB",20,"JN","P","p","asp","asp_word"
5,"baneul",44,1,1300,"M1","pb",19,10045,"paneul","baneul","NB",20,"JN","P","b","len","len_word"
2,"paneul",45,1,707,"M1","pb",19,10045,"paneul","baneul","NB",20,"JN","P","b","len","len_word"
1,"paneul",46,1,612,"M1","pb",19,10045,"paneul","baneul","NB",20,"JN","P","b","len","len_word"
4,"bama",47,0,610,"M1","pb",19,10045,"pama","bama","NB",20,"JN","P","p","asp","asp_word"
3,"pama",48,1,1316,"M1","pb",19,10045,"pama","bama","NB",20,"JN","P","b","len","asp_word"
5,"baneul",49,0,1685,"M1","pb",19,10045,"paneul","baneul","NB",20,"JN","P","p","asp","len_word"
7,"bama",50,0,682,"M1","pb",19,10045,"pama","bama","NB",20,"JN","P","p","asp","asp_word"
2,"bama",51,1,960,"M1","pb",19,10045,"pama","bama","NB",20,"JN","P","b","len","asp_word"
4,"paneul",52,1,1367,"M1","pb",19,10045,"paneul","baneul","NB",20,"JN","P","b","len","len_word"
3,"baneul",53,0,900,"M1","pb",19,10045,"paneul","baneul","NB",20,"JN","P","p","asp","len_word"
3,"bama",54,1,1112,"M1","pb",19,10045,"pama","bama","NB",20,"JN","P","b","len","asp_word"
2,"baneul",55,1,913,"M1","pb",19,10045,"paneul","baneul","NB",20,"JN","P","b","len","len_word"
7,"tongmil",56,0,915,"F1","td",19,10045,"tongmil","dongmil","NB",20,"JN","P","t","asp","asp_word"
6,"tongmil",57,0,813,"F1","td",19,10045,"tongmil","dongmil","NB",20,"JN","P","t","asp","asp_word"
3,"tomang",58,1,1040,"F1","td",19,10045,"tomang","domang","NB",20,"JN","P","d","len","len_word"
4,"dongmil",59,1,1148,"F1","td",19,10045,"tongmil","dongmil","NB",20,"JN","P","d","len","asp_word"
7,"dongmil",60,0,960,"F1","td",19,10045,"tongmil","dongmil","NB",20,"JN","P","t","asp","asp_word"
1,"dongmil",61,1,772,"F1","td",19,10045,"tongmil","dongmil","NB",20,"JN","P","d","len","asp_word"
4,"tomang",62,0,1143,"F1","td",19,10045,"tomang","domang","NB",20,"JN","P","t","asp","len_word"
1,"tomang",63,1,987,"F1","td",19,10045,"tomang","domang","NB",20,"JN","P","d","len","len_word"
3,"domang",64,1,969,"F1","td",19,10045,"tomang","domang","NB",20,"JN","P","d","len","len_word"
2,"tomang",65,1,970,"F1","td",19,10045,"tomang","domang","NB",20,"JN","P","d","len","len_word"
5,"dongmil",66,0,1022,"F1","td",19,10045,"tongmil","dongmil","NB",20,"JN","P","t","asp","asp_word"
1,"tongmil",67,1,790,"F1","td",19,10045,"tongmil","dongmil","NB",20,"JN","P","d","len","asp_word"
2,"domang",68,1,805,"F1","td",19,10045,"tomang","domang","NB",20,"JN","P","d","len","len_word"
2,"dongmil",69,1,806,"F1","td",19,10045,"tongmil","dongmil","NB",20,"JN","P","d","len","asp_word"
7,"tongmil",70,0,784,"F1","td",19,10045,"tongmil","dongmil","NB",20,"JN","P","t","asp","asp_word"
7,"dongmil",71,0,920,"F1","td",19,10045,"tongmil","dongmil","NB",20,"JN","P","t","asp","asp_word"
7,"domang",72,0,807,"F1","td",19,10045,"tomang","domang","NB",20,"JN","P","t","asp","len_word"
3,"tomang",73,1,1073,"F1","td",19,10045,"tomang","domang","NB",20,"JN","P","d","len","len_word"
4,"tomang",74,0,892,"F1","td",19,10045,"tomang","domang","NB",20,"JN","P","t","asp","len_word"
6,"dongmil",75,0,963,"F1","td",19,10045,"tongmil","dongmil","NB",20,"JN","P","t","asp","asp_word"
1,"tomang",76,1,624,"F1","td",19,10045,"tomang","domang","NB",20,"JN","P","d","len","len_word"
4,"tongmil",77,0,781,"F1","td",19,10045,"tongmil","dongmil","NB",20,"JN","P","t","asp","asp_word"
5,"dongmil",78,0,1032,"F1","td",19,10045,"tongmil","dongmil","NB",20,"JN","P","t","asp","asp_word"
4,"domang",79,1,1328,"F1","td",19,10045,"tomang","domang","NB",20,"JN","P","d","len","len_word"
5,"domang",80,1,1371,"F1","td",19,10045,"tomang","domang","NB",20,"JN","P","d","len","len_word"
6,"domang",81,0,787,"F1","td",19,10045,"tomang","domang","NB",20,"JN","P","t","asp","len_word"
3,"domang",82,1,858,"F1","td",19,10045,"tomang","domang","NB",20,"JN","P","d","len","len_word"
2,"tongmil",83,0,929,"F1","td",19,10045,"tongmil","dongmil","NB",20,"JN","P","t","asp","asp_word"
6,"tomang",84,0,793,"F1","td",19,10045,"tomang","domang","NB",20,"JN","P","t","asp","len_word"
7,"tomang",85,0,594,"F1","td",19,10045,"tomang","domang","NB",20,"JN","P","t","asp","len_word"
4,"dongmil",86,1,868,"F1","td",19,10045,"tongmil","dongmil","NB",20,"JN","P","d","len","asp_word"
3,"tongmil",87,0,828,"F1","td",19,10045,"tongmil","dongmil","NB",20,"JN","P","t","asp","asp_word"
1,"tongmil",88,1,1325,"F1","td",19,10045,"tongmil","dongmil","NB",20,"JN","P","d","len","asp_word"
1,"domang",89,1,865,"F1","td",19,10045,"tomang","domang","NB",20,"JN","P","d","len","len_word"
2,"tongmil",90,0,925,"F1","td",19,10045,"tongmil","dongmil","NB",20,"JN","P","t","asp","asp_word"
3,"dongmil",91,1,782,"F1","td",19,10045,"tongmil","dongmil","NB",20,"JN","P","d","len","asp_word"
6,"tomang",92,0,624,"F1","td",19,10045,"tomang","domang","NB",20,"JN","P","t","asp","len_word"
6,"tongmil",93,0,917,"F1","td",19,10045,"tongmil","dongmil","NB",20,"JN","P","t","asp","asp_word"
5,"tongmil",94,0,800,"F1","td",19,10045,"tongmil","dongmil","NB",20,"JN","P","t","asp","asp_word"
1,"domang",95,1,566,"F1","td",19,10045,"tomang","domang","NB",20,"JN","P","d","len","len_word"
4,"domang",96,0,1120,"F1","td",19,10045,"tomang","domang","NB",20,"JN","P","t","asp","len_word"
6,"domang",97,0,678,"F1","td",19,10045,"tomang","domang","NB",20,"JN","P","t","asp","len_word"
7,"domang",98,0,624,"F1","td",19,10045,"tomang","domang","NB",20,"JN","P","t","asp","len_word"
4,"tongmil",99,0,849,"F1","td",19,10045,"tongmil","dongmil","NB",20,"JN","P","t","asp","asp_word"
3,"tongmil",100,1,1107,"F1","td",19,10045,"tongmil","dongmil","NB",20,"JN","P","d","len","asp_word"
5,"tongmil",101,0,776,"F1","td",19,10045,"tongmil","dongmil","NB",20,"JN","P","t","asp","asp_word"
5,"tomang",102,0,949,"F1","td",19,10045,"tomang","domang","NB",20,"JN","P","t","asp","len_word"
2,"dongmil",103,1,887,"F1","td",19,10045,"tongmil","dongmil","NB",20,"JN","P","d","len","asp_word"
1,"dongmil",104,1,828,"F1","td",19,10045,"tongmil","dongmil","NB",20,"JN","P","d","len","asp_word"
3,"dongmil",105,1,1042,"F1","td",19,10045,"tongmil","dongmil","NB",20,"JN","P","d","len","asp_word"
2,"tomang",106,1,1013,"F1","td",19,10045,"tomang","domang","NB",20,"JN","P","d","len","len_word"
5,"tomang",107,0,715,"F1","td",19,10045,"tomang","domang","NB",20,"JN","P","t","asp","len_word"
7,"tomang",108,0,885,"F1","td",19,10045,"tomang","domang","NB",20,"JN","P","t","asp","len_word"
2,"domang",109,1,703,"F1","td",19,10045,"tomang","domang","NB",20,"JN","P","d","len","len_word"
5,"domang",110,0,782,"F1","td",19,10045,"tomang","domang","NB",20,"JN","P","t","asp","len_word"
6,"dongmil",111,0,779,"F1","td",19,10045,"tongmil","dongmil","NB",20,"JN","P","t","asp","asp_word"
3,"pama",0,1,1637,"M1","pb",20,7842,"pama","bama","M",20,"SE","P","b","len","asp_word"
4,"pama",1,0,845,"M1","pb",20,7842,"pama","bama","M",20,"SE","P","p","asp","asp_word"
5,"paneul",2,0,958,"M1","pb",20,7842,"paneul","baneul","M",20,"SE","P","p","asp","len_word"
3,"baneul",3,1,6574,"M1","pb",20,7842,"paneul","baneul","M",20,"SE","P","b","len","len_word"
7,"bama",4,0,919,"M1","pb",20,7842,"pama","bama","M",20,"SE","P","p","asp","asp_word"
2,"pama",5,1,658,"M1","pb",20,7842,"pama","bama","M",20,"SE","P","b","len","asp_word"
1,"pama",6,1,587,"M1","pb",20,7842,"pama","bama","M",20,"SE","P","b","len","asp_word"
3,"baneul",7,1,697,"M1","pb",20,7842,"paneul","baneul","M",20,"SE","P","b","len","len_word"
5,"bama",8,0,624,"M1","pb",20,7842,"pama","bama","M",20,"SE","P","p","asp","asp_word"
4,"bama",9,1,510,"M1","pb",20,7842,"pama","bama","M",20,"SE","P","b","len","asp_word"
5,"bama",10,0,963,"M1","pb",20,7842,"pama","bama","M",20,"SE","P","p","asp","asp_word"
3,"paneul",11,1,568,"M1","pb",20,7842,"paneul","baneul","M",20,"SE","P","b","len","len_word"
5,"paneul",12,0,850,"M1","pb",20,7842,"paneul","baneul","M",20,"SE","P","p","asp","len_word"
1,"pama",13,1,496,"M1","pb",20,7842,"pama","bama","M",20,"SE","P","b","len","asp_word"
1,"baneul",14,1,689,"M1","pb",20,7842,"paneul","baneul","M",20,"SE","P","b","len","len_word"
2,"baneul",15,1,624,"M1","pb",20,7842,"paneul","baneul","M",20,"SE","P","b","len","len_word"
3,"pama",16,1,526,"M1","pb",20,7842,"pama","bama","M",20,"SE","P","b","len","asp_word"
6,"bama",17,0,613,"M1","pb",20,7842,"pama","bama","M",20,"SE","P","p","asp","asp_word"
1,"paneul",18,1,501,"M1","pb",20,7842,"paneul","baneul","M",20,"SE","P","b","len","len_word"
7,"baneul",19,0,678,"M1","pb",20,7842,"paneul","baneul","M",20,"SE","P","p","asp","len_word"
7,"baneul",20,0,590,"M1","pb",20,7842,"paneul","baneul","M",20,"SE","P","p","asp","len_word"
3,"bama",21,1,580,"M1","pb",20,7842,"pama","bama","M",20,"SE","P","b","len","asp_word"
2,"pama",22,1,555,"M1","pb",20,7842,"pama","bama","M",20,"SE","P","b","len","asp_word"
7,"bama",23,0,764,"M1","pb",20,7842,"pama","bama","M",20,"SE","P","p","asp","asp_word"
2,"bama",24,1,619,"M1","pb",20,7842,"pama","bama","M",20,"SE","P","b","len","asp_word"
6,"bama",25,0,574,"M1","pb",20,7842,"pama","bama","M",20,"SE","P","p","asp","asp_word"
4,"bama",26,1,482,"M1","pb",20,7842,"pama","bama","M",20,"SE","P","b","len","asp_word"
4,"baneul",27,1,610,"M1","pb",20,7842,"paneul","baneul","M",20,"SE","P","b","len","len_word"
5,"baneul",28,1,656,"M1","pb",20,7842,"paneul","baneul","M",20,"SE","P","b","len","len_word"
4,"paneul",29,1,447,"M1","pb",20,7842,"paneul","baneul","M",20,"SE","P","b","len","len_word"
6,"paneul",30,1,414,"M1","pb",20,7842,"paneul","baneul","M",20,"SE","P","b","len","len_word"
2,"paneul",31,1,515,"M1","pb",20,7842,"paneul","baneul","M",20,"SE","P","b","len","len_word"
4,"pama",32,0,926,"M1","pb",20,7842,"pama","bama","M",20,"SE","P","p","asp","asp_word"
1,"bama",33,1,583,"M1","pb",20,7842,"pama","bama","M",20,"SE","P","b","len","asp_word"
2,"baneul",34,1,480,"M1","pb",20,7842,"paneul","baneul","M",20,"SE","P","b","len","len_word"
7,"pama",35,0,631,"M1","pb",20,7842,"pama","bama","M",20,"SE","P","p","asp","asp_word"
4,"baneul",36,1,496,"M1","pb",20,7842,"paneul","baneul","M",20,"SE","P","b","len","len_word"
2,"bama",37,1,530,"M1","pb",20,7842,"pama","bama","M",20,"SE","P","b","len","asp_word"
7,"paneul",38,0,591,"M1","pb",20,7842,"paneul","baneul","M",20,"SE","P","p","asp","len_word"
5,"pama",39,1,414,"M1","pb",20,7842,"pama","bama","M",20,"SE","P","b","len","asp_word"
5,"pama",40,0,581,"M1","pb",20,7842,"pama","bama","M",20,"SE","P","p","asp","asp_word"
5,"baneul",41,1,890,"M1","pb",20,7842,"paneul","baneul","M",20,"SE","P","b","len","len_word"
6,"paneul",42,0,580,"M1","pb",20,7842,"paneul","baneul","M",20,"SE","P","p","asp","len_word"
6,"pama",43,0,765,"M1","pb",20,7842,"pama","bama","M",20,"SE","P","p","asp","asp_word"
6,"baneul",44,0,788,"M1","pb",20,7842,"paneul","baneul","M",20,"SE","P","p","asp","len_word"
1,"bama",45,1,518,"M1","pb",20,7842,"pama","bama","M",20,"SE","P","b","len","asp_word"
6,"baneul",46,0,608,"M1","pb",20,7842,"paneul","baneul","M",20,"SE","P","p","asp","len_word"
4,"paneul",47,0,571,"M1","pb",20,7842,"paneul","baneul","M",20,"SE","P","p","asp","len_word"
7,"paneul",48,0,740,"M1","pb",20,7842,"paneul","baneul","M",20,"SE","P","p","asp","len_word"
2,"paneul",49,1,545,"M1","pb",20,7842,"paneul","baneul","M",20,"SE","P","b","len","len_word"
1,"baneul",50,1,606,"M1","pb",20,7842,"paneul","baneul","M",20,"SE","P","b","len","len_word"
6,"pama",51,0,595,"M1","pb",20,7842,"pama","bama","M",20,"SE","P","p","asp","asp_word"
3,"paneul",52,1,591,"M1","pb",20,7842,"paneul","baneul","M",20,"SE","P","b","len","len_word"
3,"bama",53,1,550,"M1","pb",20,7842,"pama","bama","M",20,"SE","P","b","len","asp_word"
1,"paneul",54,1,621,"M1","pb",20,7842,"paneul","baneul","M",20,"SE","P","b","len","len_word"
7,"pama",55,0,527,"M1","pb",20,7842,"pama","bama","M",20,"SE","P","p","asp","asp_word"
2,"dongmil",56,1,1561,"F1","td",20,7842,"tongmil","dongmil","M",20,"SE","P","d","len","asp_word"
6,"dongmil",57,0,663,"F1","td",20,7842,"tongmil","dongmil","M",20,"SE","P","t","asp","asp_word"
2,"domang",58,1,801,"F1","td",20,7842,"tomang","domang","M",20,"SE","P","d","len","len_word"
6,"tomang",59,0,433,"F1","td",20,7842,"tomang","domang","M",20,"SE","P","t","asp","len_word"
6,"domang",60,0,768,"F1","td",20,7842,"tomang","domang","M",20,"SE","P","t","asp","len_word"
3,"tomang",61,1,582,"F1","td",20,7842,"tomang","domang","M",20,"SE","P","d","len","len_word"
2,"tomang",62,1,494,"F1","td",20,7842,"tomang","domang","M",20,"SE","P","d","len","len_word"
7,"tongmil",63,0,803,"F1","td",20,7842,"tongmil","dongmil","M",20,"SE","P","t","asp","asp_word"
5,"tongmil",64,0,816,"F1","td",20,7842,"tongmil","dongmil","M",20,"SE","P","t","asp","asp_word"
2,"dongmil",65,1,577,"F1","td",20,7842,"tongmil","dongmil","M",20,"SE","P","d","len","asp_word"
5,"tomang",66,0,723,"F1","td",20,7842,"tomang","domang","M",20,"SE","P","t","asp","len_word"
4,"tongmil",67,0,707,"F1","td",20,7842,"tongmil","dongmil","M",20,"SE","P","t","asp","asp_word"
5,"domang",68,1,551,"F1","td",20,7842,"tomang","domang","M",20,"SE","P","d","len","len_word"
7,"dongmil",69,1,1640,"F1","td",20,7842,"tongmil","dongmil","M",20,"SE","P","d","len","asp_word"
1,"dongmil",70,1,670,"F1","td",20,7842,"tongmil","dongmil","M",20,"SE","P","d","len","asp_word"
5,"dongmil",71,1,1256,"F1","td",20,7842,"tongmil","dongmil","M",20,"SE","P","d","len","asp_word"
2,"tongmil",72,1,665,"F1","td",20,7842,"tongmil","dongmil","M",20,"SE","P","d","len","asp_word"
4,"domang",73,1,518,"F1","td",20,7842,"tomang","domang","M",20,"SE","P","d","len","len_word"
5,"domang",74,1,762,"F1","td",20,7842,"tomang","domang","M",20,"SE","P","d","len","len_word"
1,"tomang",75,1,496,"F1","td",20,7842,"tomang","domang","M",20,"SE","P","d","len","len_word"
4,"tomang",76,0,963,"F1","td",20,7842,"tomang","domang","M",20,"SE","P","t","asp","len_word"
7,"domang",77,1,722,"F1","td",20,7842,"tomang","domang","M",20,"SE","P","d","len","len_word"
1,"tongmil",78,1,742,"F1","td",20,7842,"tongmil","dongmil","M",20,"SE","P","d","len","asp_word"
6,"dongmil",79,1,739,"F1","td",20,7842,"tongmil","dongmil","M",20,"SE","P","d","len","asp_word"
6,"domang",80,1,584,"F1","td",20,7842,"tomang","domang","M",20,"SE","P","d","len","len_word"
3,"tomang",81,1,571,"F1","td",20,7842,"tomang","domang","M",20,"SE","P","d","len","len_word"
7,"tomang",82,0,688,"F1","td",20,7842,"tomang","domang","M",20,"SE","P","t","asp","len_word"
1,"domang",83,1,529,"F1","td",20,7842,"tomang","domang","M",20,"SE","P","d","len","len_word"
4,"dongmil",84,1,689,"F1","td",20,7842,"tongmil","dongmil","M",20,"SE","P","d","len","asp_word"
2,"tongmil",85,1,466,"F1","td",20,7842,"tongmil","dongmil","M",20,"SE","P","d","len","asp_word"
4,"domang",86,1,487,"F1","td",20,7842,"tomang","domang","M",20,"SE","P","d","len","len_word"
3,"domang",87,1,470,"F1","td",20,7842,"tomang","domang","M",20,"SE","P","d","len","len_word"
1,"dongmil",88,1,811,"F1","td",20,7842,"tongmil","dongmil","M",20,"SE","P","d","len","asp_word"
6,"tongmil",89,0,724,"F1","td",20,7842,"tongmil","dongmil","M",20,"SE","P","t","asp","asp_word"
5,"tongmil",90,0,1179,"F1","td",20,7842,"tongmil","dongmil","M",20,"SE","P","t","asp","asp_word"
3,"tongmil",91,0,1090,"F1","td",20,7842,"tongmil","dongmil","M",20,"SE","P","t","asp","asp_word"
7,"tomang",92,0,744,"F1","td",20,7842,"tomang","domang","M",20,"SE","P","t","asp","len_word"
4,"tomang",93,0,660,"F1","td",20,7842,"tomang","domang","M",20,"SE","P","t","asp","len_word"
2,"tomang",94,1,610,"F1","td",20,7842,"tomang","domang","M",20,"SE","P","d","len","len_word"
2,"domang",95,1,597,"F1","td",20,7842,"tomang","domang","M",20,"SE","P","d","len","len_word"
5,"tomang",96,0,703,"F1","td",20,7842,"tomang","domang","M",20,"SE","P","t","asp","len_word"
4,"tongmil",97,0,1012,"F1","td",20,7842,"tongmil","dongmil","M",20,"SE","P","t","asp","asp_word"
1,"tongmil",98,1,635,"F1","td",20,7842,"tongmil","dongmil","M",20,"SE","P","d","len","asp_word"
7,"tongmil",99,0,698,"F1","td",20,7842,"tongmil","dongmil","M",20,"SE","P","t","asp","asp_word"
4,"dongmil",100,1,761,"F1","td",20,7842,"tongmil","dongmil","M",20,"SE","P","d","len","asp_word"
7,"domang",101,0,756,"F1","td",20,7842,"tomang","domang","M",20,"SE","P","t","asp","len_word"
3,"tongmil",102,1,1044,"F1","td",20,7842,"tongmil","dongmil","M",20,"SE","P","d","len","asp_word"
1,"domang",103,1,603,"F1","td",20,7842,"tomang","domang","M",20,"SE","P","d","len","len_word"
5,"dongmil",104,1,790,"F1","td",20,7842,"tongmil","dongmil","M",20,"SE","P","d","len","asp_word"
3,"dongmil",105,1,1141,"F1","td",20,7842,"tongmil","dongmil","M",20,"SE","P","d","len","asp_word"
6,"tongmil",106,0,1246,"F1","td",20,7842,"tongmil","dongmil","M",20,"SE","P","t","asp","asp_word"
7,"dongmil",107,0,1897,"F1","td",20,7842,"tongmil","dongmil","M",20,"SE","P","t","asp","asp_word"
6,"tomang",108,0,874,"F1","td",20,7842,"tomang","domang","M",20,"SE","P","t","asp","len_word"
1,"tomang",109,1,556,"F1","td",20,7842,"tomang","domang","M",20,"SE","P","d","len","len_word"
3,"dongmil",110,1,804,"F1","td",20,7842,"tongmil","dongmil","M",20,"SE","P","d","len","asp_word"
3,"domang",111,1,612,"F1","td",20,7842,"tomang","domang","M",20,"SE","P","d","len","len_word"
5,"baneul",0,1,2916,"M1","pb",21,6383,"paneul","baneul","F",20,"GG","P","b","len","len_word"
1,"paneul",1,1,1392,"M1","pb",21,6383,"paneul","baneul","F",20,"GG","P","b","len","len_word"
7,"pama",2,0,1612,"M1","pb",21,6383,"pama","bama","F",20,"GG","P","p","asp","asp_word"
3,"baneul",3,1,1808,"M1","pb",21,6383,"paneul","baneul","F",20,"GG","P","b","len","len_word"
6,"pama",4,0,1386,"M1","pb",21,6383,"pama","bama","F",20,"GG","P","p","asp","asp_word"
6,"paneul",5,0,1539,"M1","pb",21,6383,"paneul","baneul","F",20,"GG","P","p","asp","len_word"
4,"paneul",6,1,1639,"M1","pb",21,6383,"paneul","baneul","F",20,"GG","P","b","len","len_word"
6,"pama",7,0,1118,"M1","pb",21,6383,"pama","bama","F",20,"GG","P","p","asp","asp_word"
1,"bama",8,1,1408,"M1","pb",21,6383,"pama","bama","F",20,"GG","P","b","len","asp_word"
1,"paneul",9,1,1405,"M1","pb",21,6383,"paneul","baneul","F",20,"GG","P","b","len","len_word"
7,"baneul",10,0,1164,"M1","pb",21,6383,"paneul","baneul","F",20,"GG","P","p","asp","len_word"
1,"baneul",11,1,1052,"M1","pb",21,6383,"paneul","baneul","F",20,"GG","P","b","len","len_word"
1,"baneul",12,1,1063,"M1","pb",21,6383,"paneul","baneul","F",20,"GG","P","b","len","len_word"
2,"pama",13,1,2770,"M1","pb",21,6383,"pama","bama","F",20,"GG","P","b","len","asp_word"
3,"bama",14,0,1422,"M1","pb",21,6383,"pama","bama","F",20,"GG","P","p","asp","asp_word"
6,"paneul",15,0,1667,"M1","pb",21,6383,"paneul","baneul","F",20,"GG","P","p","asp","len_word"
6,"bama",16,0,1408,"M1","pb",21,6383,"pama","bama","F",20,"GG","P","p","asp","asp_word"
2,"paneul",17,1,1106,"M1","pb",21,6383,"paneul","baneul","F",20,"GG","P","b","len","len_word"
4,"paneul",18,0,2166,"M1","pb",21,6383,"paneul","baneul","F",20,"GG","P","p","asp","len_word"
7,"pama",19,0,1875,"M1","pb",21,6383,"pama","bama","F",20,"GG","P","p","asp","asp_word"
3,"paneul",20,1,3414,"M1","pb",21,6383,"paneul","baneul","F",20,"GG","P","b","len","len_word"
3,"paneul",21,1,6243,"M1","pb",21,6383,"paneul","baneul","F",20,"GG","P","b","len","len_word"
2,"paneul",22,1,1340,"M1","pb",21,6383,"paneul","baneul","F",20,"GG","P","b","len","len_word"
2,"bama",23,1,1330,"M1","pb",21,6383,"pama","bama","F",20,"GG","P","b","len","asp_word"
2,"baneul",24,1,953,"M1","pb",21,6383,"paneul","baneul","F",20,"GG","P","b","len","len_word"
1,"pama",25,1,1638,"M1","pb",21,6383,"pama","bama","F",20,"GG","P","b","len","asp_word"
3,"pama",26,0,1470,"M1","pb",21,6383,"pama","bama","F",20,"GG","P","p","asp","asp_word"
4,"bama",27,0,1045,"M1","pb",21,6383,"pama","bama","F",20,"GG","P","p","asp","asp_word"
6,"baneul",28,0,3531,"M1","pb",21,6383,"paneul","baneul","F",20,"GG","P","p","asp","len_word"
2,"bama",29,1,1558,"M1","pb",21,6383,"pama","bama","F",20,"GG","P","b","len","asp_word"
4,"baneul",30,1,1101,"M1","pb",21,6383,"paneul","baneul","F",20,"GG","P","b","len","len_word"
5,"bama",31,0,914,"M1","pb",21,6383,"pama","bama","F",20,"GG","P","p","asp","asp_word"
4,"pama",32,0,2344,"M1","pb",21,6383,"pama","bama","F",20,"GG","P","p","asp","asp_word"
7,"paneul",33,0,1799,"M1","pb",21,6383,"paneul","baneul","F",20,"GG","P","p","asp","len_word"
5,"paneul",34,1,1996,"M1","pb",21,6383,"paneul","baneul","F",20,"GG","P","b","len","len_word"
7,"baneul",35,1,1181,"M1","pb",21,6383,"paneul","baneul","F",20,"GG","P","b","len","len_word"
3,"pama",36,1,1622,"M1","pb",21,6383,"pama","bama","F",20,"GG","P","b","len","asp_word"
7,"bama",37,0,1571,"M1","pb",21,6383,"pama","bama","F",20,"GG","P","p","asp","asp_word"
1,"bama",38,1,986,"M1","pb",21,6383,"pama","bama","F",20,"GG","P","b","len","asp_word"
7,"bama",39,0,903,"M1","pb",21,6383,"pama","bama","F",20,"GG","P","p","asp","asp_word"
6,"bama",40,0,1236,"M1","pb",21,6383,"pama","bama","F",20,"GG","P","p","asp","asp_word"
2,"pama",41,1,1190,"M1","pb",21,6383,"pama","bama","F",20,"GG","P","b","len","asp_word"
5,"pama",42,0,917,"M1","pb",21,6383,"pama","bama","F",20,"GG","P","p","asp","asp_word"
4,"baneul",43,1,908,"M1","pb",21,6383,"paneul","baneul","F",20,"GG","P","b","len","len_word"
1,"pama",44,1,1503,"M1","pb",21,6383,"pama","bama","F",20,"GG","P","b","len","asp_word"
5,"pama",45,0,800,"M1","pb",21,6383,"pama","bama","F",20,"GG","P","p","asp","asp_word"
5,"baneul",46,1,1512,"M1","pb",21,6383,"paneul","baneul","F",20,"GG","P","b","len","len_word"
2,"baneul",47,1,1031,"M1","pb",21,6383,"paneul","baneul","F",20,"GG","P","b","len","len_word"
3,"bama",48,0,875,"M1","pb",21,6383,"pama","bama","F",20,"GG","P","p","asp","asp_word"
4,"pama",49,0,1195,"M1","pb",21,6383,"pama","bama","F",20,"GG","P","p","asp","asp_word"
5,"paneul",50,0,1818,"M1","pb",21,6383,"paneul","baneul","F",20,"GG","P","p","asp","len_word"
7,"paneul",51,0,1699,"M1","pb",21,6383,"paneul","baneul","F",20,"GG","P","p","asp","len_word"
5,"bama",52,0,1149,"M1","pb",21,6383,"pama","bama","F",20,"GG","P","p","asp","asp_word"
3,"baneul",53,1,936,"M1","pb",21,6383,"paneul","baneul","F",20,"GG","P","b","len","len_word"
4,"bama",54,0,1177,"M1","pb",21,6383,"pama","bama","F",20,"GG","P","p","asp","asp_word"
6,"baneul",55,1,1526,"M1","pb",21,6383,"paneul","baneul","F",20,"GG","P","b","len","len_word"
4,"tomang",56,0,2008,"F1","td",21,6383,"tomang","domang","F",20,"GG","P","t","asp","len_word"
6,"domang",57,0,3624,"F1","td",21,6383,"tomang","domang","F",20,"GG","P","t","asp","len_word"
3,"domang",58,1,1042,"F1","td",21,6383,"tomang","domang","F",20,"GG","P","d","len","len_word"
2,"domang",59,1,790,"F1","td",21,6383,"tomang","domang","F",20,"GG","P","d","len","len_word"
7,"tomang",60,0,1066,"F1","td",21,6383,"tomang","domang","F",20,"GG","P","t","asp","len_word"
1,"tomang",61,1,1491,"F1","td",21,6383,"tomang","domang","F",20,"GG","P","d","len","len_word"
5,"domang",62,1,985,"F1","td",21,6383,"tomang","domang","F",20,"GG","P","d","len","len_word"
4,"dongmil",63,1,1457,"F1","td",21,6383,"tongmil","dongmil","F",20,"GG","P","d","len","asp_word"
7,"dongmil",64,0,895,"F1","td",21,6383,"tongmil","dongmil","F",20,"GG","P","t","asp","asp_word"
6,"domang",65,0,2886,"F1","td",21,6383,"tomang","domang","F",20,"GG","P","t","asp","len_word"
2,"tomang",66,1,1263,"F1","td",21,6383,"tomang","domang","F",20,"GG","P","d","len","len_word"
6,"tongmil",67,0,905,"F1","td",21,6383,"tongmil","dongmil","F",20,"GG","P","t","asp","asp_word"
6,"tongmil",68,0,1070,"F1","td",21,6383,"tongmil","dongmil","F",20,"GG","P","t","asp","asp_word"
3,"tongmil",69,1,1048,"F1","td",21,6383,"tongmil","dongmil","F",20,"GG","P","d","len","asp_word"
4,"tongmil",70,0,2186,"F1","td",21,6383,"tongmil","dongmil","F",20,"GG","P","t","asp","asp_word"
5,"dongmil",71,1,1220,"F1","td",21,6383,"tongmil","dongmil","F",20,"GG","P","d","len","asp_word"
7,"domang",72,1,1461,"F1","td",21,6383,"tomang","domang","F",20,"GG","P","d","len","len_word"
5,"dongmil",73,1,1214,"F1","td",21,6383,"tongmil","dongmil","F",20,"GG","P","d","len","asp_word"
3,"tomang",74,1,842,"F1","td",21,6383,"tomang","domang","F",20,"GG","P","d","len","len_word"
2,"tomang",75,1,813,"F1","td",21,6383,"tomang","domang","F",20,"GG","P","d","len","len_word"
5,"tomang",76,0,891,"F1","td",21,6383,"tomang","domang","F",20,"GG","P","t","asp","len_word"
4,"tomang",77,0,1726,"F1","td",21,6383,"tomang","domang","F",20,"GG","P","t","asp","len_word"
4,"domang",78,1,769,"F1","td",21,6383,"tomang","domang","F",20,"GG","P","d","len","len_word"
2,"tongmil",79,0,2964,"F1","td",21,6383,"tongmil","dongmil","F",20,"GG","P","t","asp","asp_word"
6,"tomang",80,1,3723,"F1","td",21,6383,"tomang","domang","F",20,"GG","P","d","len","len_word"
7,"dongmil",81,0,2160,"F1","td",21,6383,"tongmil","dongmil","F",20,"GG","P","t","asp","asp_word"
2,"domang",82,1,1075,"F1","td",21,6383,"tomang","domang","F",20,"GG","P","d","len","len_word"
4,"domang",83,1,873,"F1","td",21,6383,"tomang","domang","F",20,"GG","P","d","len","len_word"
2,"tongmil",84,1,1318,"F1","td",21,6383,"tongmil","dongmil","F",20,"GG","P","d","len","asp_word"
3,"dongmil",85,1,962,"F1","td",21,6383,"tongmil","dongmil","F",20,"GG","P","d","len","asp_word"
2,"dongmil",86,1,1001,"F1","td",21,6383,"tongmil","dongmil","F",20,"GG","P","d","len","asp_word"
6,"tomang",87,0,1039,"F1","td",21,6383,"tomang","domang","F",20,"GG","P","t","asp","len_word"
1,"domang",88,1,771,"F1","td",21,6383,"tomang","domang","F",20,"GG","P","d","len","len_word"
1,"dongmil",89,1,929,"F1","td",21,6383,"tongmil","dongmil","F",20,"GG","P","d","len","asp_word"
7,"tomang",90,0,818,"F1","td",21,6383,"tomang","domang","F",20,"GG","P","t","asp","len_word"
5,"tongmil",91,0,1145,"F1","td",21,6383,"tongmil","dongmil","F",20,"GG","P","t","asp","asp_word"
1,"tomang",92,1,1021,"F1","td",21,6383,"tomang","domang","F",20,"GG","P","d","len","len_word"
1,"dongmil",93,1,1568,"F1","td",21,6383,"tongmil","dongmil","F",20,"GG","P","d","len","asp_word"
4,"tongmil",94,0,1042,"F1","td",21,6383,"tongmil","dongmil","F",20,"GG","P","t","asp","asp_word"
5,"domang",95,1,808,"F1","td",21,6383,"tomang","domang","F",20,"GG","P","d","len","len_word"
6,"dongmil",96,1,1542,"F1","td",21,6383,"tongmil","dongmil","F",20,"GG","P","d","len","asp_word"
3,"dongmil",97,1,944,"F1","td",21,6383,"tongmil","dongmil","F",20,"GG","P","d","len","asp_word"
7,"tongmil",98,0,793,"F1","td",21,6383,"tongmil","dongmil","F",20,"GG","P","t","asp","asp_word"
6,"dongmil",99,1,2317,"F1","td",21,6383,"tongmil","dongmil","F",20,"GG","P","d","len","asp_word"
4,"dongmil",100,1,1147,"F1","td",21,6383,"tongmil","dongmil","F",20,"GG","P","d","len","asp_word"
7,"tongmil",101,0,1017,"F1","td",21,6383,"tongmil","dongmil","F",20,"GG","P","t","asp","asp_word"
2,"dongmil",102,1,762,"F1","td",21,6383,"tongmil","dongmil","F",20,"GG","P","d","len","asp_word"
3,"tomang",103,0,1267,"F1","td",21,6383,"tomang","domang","F",20,"GG","P","t","asp","len_word"
1,"tongmil",104,1,2839,"F1","td",21,6383,"tongmil","dongmil","F",20,"GG","P","d","len","asp_word"
1,"domang",105,1,1520,"F1","td",21,6383,"tomang","domang","F",20,"GG","P","d","len","len_word"
1,"tongmil",106,1,889,"F1","td",21,6383,"tongmil","dongmil","F",20,"GG","P","d","len","asp_word"
7,"domang",107,1,1783,"F1","td",21,6383,"tomang","domang","F",20,"GG","P","d","len","len_word"
5,"tongmil",108,0,1174,"F1","td",21,6383,"tongmil","dongmil","F",20,"GG","P","t","asp","asp_word"
3,"tongmil",109,1,2235,"F1","td",21,6383,"tongmil","dongmil","F",20,"GG","P","d","len","asp_word"
3,"domang",110,1,894,"F1","td",21,6383,"tomang","domang","F",20,"GG","P","d","len","len_word"
5,"tomang",111,0,863,"F1","td",21,6383,"tomang","domang","F",20,"GG","P","t","asp","len_word"
5,"baneul",0,1,1110,"M1","pb",0,4560,"paneul","baneul","F",20,"SE","P","b","len","len_word"
5,"bama",1,1,1654,"M1","pb",0,4560,"pama","bama","F",20,"SE","P","b","len","asp_word"
7,"pama",2,0,812,"M1","pb",0,4560,"pama","bama","F",20,"SE","P","p","asp","asp_word"
4,"paneul",3,1,703,"M1","pb",0,4560,"paneul","baneul","F",20,"SE","P","b","len","len_word"
3,"pama",4,1,894,"M1","pb",0,4560,"pama","bama","F",20,"SE","P","b","len","asp_word"
2,"pama",5,1,632,"M1","pb",0,4560,"pama","bama","F",20,"SE","P","b","len","asp_word"
4,"bama",6,1,566,"M1","pb",0,4560,"pama","bama","F",20,"SE","P","b","len","asp_word"
5,"pama",7,0,704,"M1","pb",0,4560,"pama","bama","F",20,"SE","P","p","asp","asp_word"
1,"paneul",8,1,721,"M1","pb",0,4560,"paneul","baneul","F",20,"SE","P","b","len","len_word"
2,"bama",9,1,732,"M1","pb",0,4560,"pama","bama","F",20,"SE","P","b","len","asp_word"
6,"pama",10,0,760,"M1","pb",0,4560,"pama","bama","F",20,"SE","P","p","asp","asp_word"
3,"pama",11,1,591,"M1","pb",0,4560,"pama","bama","F",20,"SE","P","b","len","asp_word"
1,"baneul",12,1,768,"M1","pb",0,4560,"paneul","baneul","F",20,"SE","P","b","len","len_word"
7,"bama",13,0,672,"M1","pb",0,4560,"pama","bama","F",20,"SE","P","p","asp","asp_word"
7,"paneul",14,0,883,"M1","pb",0,4560,"paneul","baneul","F",20,"SE","P","p","asp","len_word"
2,"baneul",15,1,667,"M1","pb",0,4560,"paneul","baneul","F",20,"SE","P","b","len","len_word"
4,"bama",16,1,1466,"M1","pb",0,4560,"pama","bama","F",20,"SE","P","b","len","asp_word"
1,"bama",17,1,760,"M1","pb",0,4560,"pama","bama","F",20,"SE","P","b","len","asp_word"
3,"bama",18,1,1086,"M1","pb",0,4560,"pama","bama","F",20,"SE","P","b","len","asp_word"
3,"paneul",19,1,788,"M1","pb",0,4560,"paneul","baneul","F",20,"SE","P","b","len","len_word"
5,"paneul",20,0,783,"M1","pb",0,4560,"paneul","baneul","F",20,"SE","P","p","asp","len_word"
1,"bama",21,1,606,"M1","pb",0,4560,"pama","bama","F",20,"SE","P","b","len","asp_word"
4,"baneul",22,1,836,"M1","pb",0,4560,"paneul","baneul","F",20,"SE","P","b","len","len_word"
1,"paneul",23,1,750,"M1","pb",0,4560,"paneul","baneul","F",20,"SE","P","b","len","len_word"
1,"baneul",24,1,714,"M1","pb",0,4560,"paneul","baneul","F",20,"SE","P","b","len","len_word"
4,"pama",25,0,825,"M1","pb",0,4560,"pama","bama","F",20,"SE","P","p","asp","asp_word"
6,"baneul",26,0,826,"M1","pb",0,4560,"paneul","baneul","F",20,"SE","P","p","asp","len_word"
4,"paneul",27,1,1001,"M1","pb",0,4560,"paneul","baneul","F",20,"SE","P","b","len","len_word"
2,"baneul",28,1,692,"M1","pb",0,4560,"paneul","baneul","F",20,"SE","P","b","len","len_word"
6,"paneul",29,0,2292,"M1","pb",0,4560,"paneul","baneul","F",20,"SE","P","p","asp","len_word"
7,"pama",30,0,1094,"M1","pb",0,4560,"pama","bama","F",20,"SE","P","p","asp","asp_word"
4,"baneul",31,1,605,"M1","pb",0,4560,"paneul","baneul","F",20,"SE","P","b","len","len_word"
1,"pama",32,1,976,"M1","pb",0,4560,"pama","bama","F",20,"SE","P","b","len","asp_word"
6,"baneul",33,0,974,"M1","pb",0,4560,"paneul","baneul","F",20,"SE","P","p","asp","len_word"
3,"paneul",34,1,712,"M1","pb",0,4560,"paneul","baneul","F",20,"SE","P","b","len","len_word"
2,"bama",35,1,770,"M1","pb",0,4560,"pama","bama","F",20,"SE","P","b","len","asp_word"
6,"bama",36,0,1512,"M1","pb",0,4560,"pama","bama","F",20,"SE","P","p","asp","asp_word"
1,"pama",37,1,662,"M1","pb",0,4560,"pama","bama","F",20,"SE","P","b","len","asp_word"
5,"bama",38,1,1115,"M1","pb",0,4560,"pama","bama","F",20,"SE","P","b","len","asp_word"
7,"bama",39,0,796,"M1","pb",0,4560,"pama","bama","F",20,"SE","P","p","asp","asp_word"
4,"pama",40,0,1283,"M1","pb",0,4560,"pama","bama","F",20,"SE","P","p","asp","asp_word"
5,"baneul",41,0,842,"M1","pb",0,4560,"paneul","baneul","F",20,"SE","P","p","asp","len_word"
3,"baneul",42,1,745,"M1","pb",0,4560,"paneul","baneul","F",20,"SE","P","b","len","len_word"
5,"paneul",43,0,1077,"M1","pb",0,4560,"paneul","baneul","F",20,"SE","P","p","asp","len_word"
3,"bama",44,1,1016,"M1","pb",0,4560,"pama","bama","F",20,"SE","P","b","len","asp_word"
2,"pama",45,1,1072,"M1","pb",0,4560,"pama","bama","F",20,"SE","P","b","len","asp_word"
7,"baneul",46,0,669,"M1","pb",0,4560,"paneul","baneul","F",20,"SE","P","p","asp","len_word"
6,"pama",47,0,731,"M1","pb",0,4560,"pama","bama","F",20,"SE","P","p","asp","asp_word"
7,"baneul",48,0,771,"M1","pb",0,4560,"paneul","baneul","F",20,"SE","P","p","asp","len_word"
6,"bama",49,0,811,"M1","pb",0,4560,"pama","bama","F",20,"SE","P","p","asp","asp_word"
6,"paneul",50,0,766,"M1","pb",0,4560,"paneul","baneul","F",20,"SE","P","p","asp","len_word"
5,"pama",51,0,607,"M1","pb",0,4560,"pama","bama","F",20,"SE","P","p","asp","asp_word"
7,"paneul",52,0,785,"M1","pb",0,4560,"paneul","baneul","F",20,"SE","P","p","asp","len_word"
3,"baneul",53,1,694,"M1","pb",0,4560,"paneul","baneul","F",20,"SE","P","b","len","len_word"
2,"paneul",54,1,586,"M1","pb",0,4560,"paneul","baneul","F",20,"SE","P","b","len","len_word"
2,"paneul",55,1,576,"M1","pb",0,4560,"paneul","baneul","F",20,"SE","P","b","len","len_word"
6,"domang",56,0,928,"F1","td",0,4560,"tomang","domang","F",20,"SE","P","t","asp","len_word"
1,"tomang",57,1,702,"F1","td",0,4560,"tomang","domang","F",20,"SE","P","d","len","len_word"
1,"domang",58,1,710,"F1","td",0,4560,"tomang","domang","F",20,"SE","P","d","len","len_word"
4,"tomang",59,0,962,"F1","td",0,4560,"tomang","domang","F",20,"SE","P","t","asp","len_word"
5,"tomang",60,0,804,"F1","td",0,4560,"tomang","domang","F",20,"SE","P","t","asp","len_word"
2,"tongmil",61,1,785,"F1","td",0,4560,"tongmil","dongmil","F",20,"SE","P","d","len","asp_word"
6,"tomang",62,0,698,"F1","td",0,4560,"tomang","domang","F",20,"SE","P","t","asp","len_word"
7,"tomang",63,0,634,"F1","td",0,4560,"tomang","domang","F",20,"SE","P","t","asp","len_word"
3,"dongmil",64,1,760,"F1","td",0,4560,"tongmil","dongmil","F",20,"SE","P","d","len","asp_word"
4,"tongmil",65,0,933,"F1","td",0,4560,"tongmil","dongmil","F",20,"SE","P","t","asp","asp_word"
1,"tongmil",66,1,772,"F1","td",0,4560,"tongmil","dongmil","F",20,"SE","P","d","len","asp_word"
5,"tongmil",67,0,628,"F1","td",0,4560,"tongmil","dongmil","F",20,"SE","P","t","asp","asp_word"
5,"tomang",68,0,610,"F1","td",0,4560,"tomang","domang","F",20,"SE","P","t","asp","len_word"
6,"tongmil",69,0,626,"F1","td",0,4560,"tongmil","dongmil","F",20,"SE","P","t","asp","asp_word"
3,"tomang",70,1,685,"F1","td",0,4560,"tomang","domang","F",20,"SE","P","d","len","len_word"
4,"tongmil",71,0,901,"F1","td",0,4560,"tongmil","dongmil","F",20,"SE","P","t","asp","asp_word"
5,"dongmil",72,0,1081,"F1","td",0,4560,"tongmil","dongmil","F",20,"SE","P","t","asp","asp_word"
4,"domang",73,1,593,"F1","td",0,4560,"tomang","domang","F",20,"SE","P","d","len","len_word"
1,"domang",74,1,665,"F1","td",0,4560,"tomang","domang","F",20,"SE","P","d","len","len_word"
3,"tomang",75,0,743,"F1","td",0,4560,"tomang","domang","F",20,"SE","P","t","asp","len_word"
5,"domang",76,0,721,"F1","td",0,4560,"tomang","domang","F",20,"SE","P","t","asp","len_word"
2,"dongmil",77,1,782,"F1","td",0,4560,"tongmil","dongmil","F",20,"SE","P","d","len","asp_word"
2,"dongmil",78,1,892,"F1","td",0,4560,"tongmil","dongmil","F",20,"SE","P","d","len","asp_word"
7,"domang",79,0,834,"F1","td",0,4560,"tomang","domang","F",20,"SE","P","t","asp","len_word"
6,"tomang",80,0,543,"F1","td",0,4560,"tomang","domang","F",20,"SE","P","t","asp","len_word"
4,"tomang",81,0,575,"F1","td",0,4560,"tomang","domang","F",20,"SE","P","t","asp","len_word"
1,"dongmil",82,1,723,"F1","td",0,4560,"tongmil","dongmil","F",20,"SE","P","d","len","asp_word"
4,"dongmil",83,0,864,"F1","td",0,4560,"tongmil","dongmil","F",20,"SE","P","t","asp","asp_word"
1,"tomang",84,1,714,"F1","td",0,4560,"tomang","domang","F",20,"SE","P","d","len","len_word"
2,"tomang",85,1,687,"F1","td",0,4560,"tomang","domang","F",20,"SE","P","d","len","len_word"
6,"dongmil",86,0,743,"F1","td",0,4560,"tongmil","dongmil","F",20,"SE","P","t","asp","asp_word"
3,"tongmil",87,0,674,"F1","td",0,4560,"tongmil","dongmil","F",20,"SE","P","t","asp","asp_word"
1,"tongmil",88,1,842,"F1","td",0,4560,"tongmil","dongmil","F",20,"SE","P","d","len","asp_word"
2,"domang",89,1,696,"F1","td",0,4560,"tomang","domang","F",20,"SE","P","d","len","len_word"
4,"dongmil",90,0,955,"F1","td",0,4560,"tongmil","dongmil","F",20,"SE","P","t","asp","asp_word"
2,"domang",91,1,496,"F1","td",0,4560,"tomang","domang","F",20,"SE","P","d","len","len_word"
6,"dongmil",92,0,668,"F1","td",0,4560,"tongmil","dongmil","F",20,"SE","P","t","asp","asp_word"
7,"tongmil",93,0,877,"F1","td",0,4560,"tongmil","dongmil","F",20,"SE","P","t","asp","asp_word"
5,"dongmil",94,0,936,"F1","td",0,4560,"tongmil","dongmil","F",20,"SE","P","t","asp","asp_word"
4,"domang",95,1,592,"F1","td",0,4560,"tomang","domang","F",20,"SE","P","d","len","len_word"
3,"tongmil",96,1,1484,"F1","td",0,4560,"tongmil","dongmil","F",20,"SE","P","d","len","asp_word"
3,"domang",97,1,706,"F1","td",0,4560,"tomang","domang","F",20,"SE","P","d","len","len_word"
7,"tongmil",98,0,691,"F1","td",0,4560,"tongmil","dongmil","F",20,"SE","P","t","asp","asp_word"
7,"dongmil",99,0,753,"F1","td",0,4560,"tongmil","dongmil","F",20,"SE","P","t","asp","asp_word"
2,"tongmil",100,1,812,"F1","td",0,4560,"tongmil","dongmil","F",20,"SE","P","d","len","asp_word"
7,"tomang",101,0,632,"F1","td",0,4560,"tomang","domang","F",20,"SE","P","t","asp","len_word"
3,"domang",102,1,539,"F1","td",0,4560,"tomang","domang","F",20,"SE","P","d","len","len_word"
2,"tomang",103,1,810,"F1","td",0,4560,"tomang","domang","F",20,"SE","P","d","len","len_word"
5,"tongmil",104,0,932,"F1","td",0,4560,"tongmil","dongmil","F",20,"SE","P","t","asp","asp_word"
3,"dongmil",105,1,863,"F1","td",0,4560,"tongmil","dongmil","F",20,"SE","P","d","len","asp_word"
5,"domang",106,0,931,"F1","td",0,4560,"tomang","domang","F",20,"SE","P","t","asp","len_word"
1,"dongmil",107,1,851,"F1","td",0,4560,"tongmil","dongmil","F",20,"SE","P","d","len","asp_word"
6,"tongmil",108,0,747,"F1","td",0,4560,"tongmil","dongmil","F",20,"SE","P","t","asp","asp_word"
7,"domang",109,0,941,"F1","td",0,4560,"tomang","domang","F",20,"SE","P","t","asp","len_word"
6,"domang",110,0,1064,"F1","td",0,4560,"tomang","domang","F",20,"SE","P","t","asp","len_word"
7,"dongmil",111,0,1019,"F1","td",0,4560,"tongmil","dongmil","F",20,"SE","P","t","asp","asp_word"
5,"pama",0,0,1369,"M1","pb",23,6092,"pama","bama","F",20,"SE","P","p","asp","asp_word"
7,"pama",1,0,1568,"M1","pb",23,6092,"pama","bama","F",20,"SE","P","p","asp","asp_word"
7,"pama",2,0,2146,"M1","pb",23,6092,"pama","bama","F",20,"SE","P","p","asp","asp_word"
7,"paneul",3,0,1694,"M1","pb",23,6092,"paneul","baneul","F",20,"SE","P","p","asp","len_word"
3,"paneul",4,1,1025,"M1","pb",23,6092,"paneul","baneul","F",20,"SE","P","b","len","len_word"
1,"bama",5,1,1189,"M1","pb",23,6092,"pama","bama","F",20,"SE","P","b","len","asp_word"
5,"pama",6,0,896,"M1","pb",23,6092,"pama","bama","F",20,"SE","P","p","asp","asp_word"
5,"paneul",7,0,877,"M1","pb",23,6092,"paneul","baneul","F",20,"SE","P","p","asp","len_word"
1,"bama",8,1,814,"M1","pb",23,6092,"pama","bama","F",20,"SE","P","b","len","asp_word"
7,"baneul",9,0,1056,"M1","pb",23,6092,"paneul","baneul","F",20,"SE","P","p","asp","len_word"
3,"pama",10,0,1324,"M1","pb",23,6092,"pama","bama","F",20,"SE","P","p","asp","asp_word"
7,"bama",11,0,2004,"M1","pb",23,6092,"pama","bama","F",20,"SE","P","p","asp","asp_word"
3,"baneul",12,1,912,"M1","pb",23,6092,"paneul","baneul","F",20,"SE","P","b","len","len_word"
6,"pama",13,0,829,"M1","pb",23,6092,"pama","bama","F",20,"SE","P","p","asp","asp_word"
5,"bama",14,0,1131,"M1","pb",23,6092,"pama","bama","F",20,"SE","P","p","asp","asp_word"
6,"paneul",15,0,1327,"M1","pb",23,6092,"paneul","baneul","F",20,"SE","P","p","asp","len_word"
3,"pama",16,1,1002,"M1","pb",23,6092,"pama","bama","F",20,"SE","P","b","len","asp_word"
4,"baneul",17,1,1507,"M1","pb",23,6092,"paneul","baneul","F",20,"SE","P","b","len","len_word"
3,"bama",18,0,1110,"M1","pb",23,6092,"pama","bama","F",20,"SE","P","p","asp","asp_word"
6,"baneul",19,0,1192,"M1","pb",23,6092,"paneul","baneul","F",20,"SE","P","p","asp","len_word"
2,"paneul",20,1,819,"M1","pb",23,6092,"paneul","baneul","F",20,"SE","P","b","len","len_word"
2,"pama",21,0,983,"M1","pb",23,6092,"pama","bama","F",20,"SE","P","p","asp","asp_word"
6,"baneul",22,0,1113,"M1","pb",23,6092,"paneul","baneul","F",20,"SE","P","p","asp","len_word"
4,"bama",23,1,1039,"M1","pb",23,6092,"pama","bama","F",20,"SE","P","b","len","asp_word"
2,"bama",24,1,796,"M1","pb",23,6092,"pama","bama","F",20,"SE","P","b","len","asp_word"
7,"bama",25,0,1079,"M1","pb",23,6092,"pama","bama","F",20,"SE","P","p","asp","asp_word"
4,"paneul",26,1,916,"M1","pb",23,6092,"paneul","baneul","F",20,"SE","P","b","len","len_word"
2,"paneul",27,1,723,"M1","pb",23,6092,"paneul","baneul","F",20,"SE","P","b","len","len_word"
1,"paneul",28,1,821,"M1","pb",23,6092,"paneul","baneul","F",20,"SE","P","b","len","len_word"
4,"baneul",29,1,1186,"M1","pb",23,6092,"paneul","baneul","F",20,"SE","P","b","len","len_word"
2,"baneul",30,1,902,"M1","pb",23,6092,"paneul","baneul","F",20,"SE","P","b","len","len_word"
5,"bama",31,0,835,"M1","pb",23,6092,"pama","bama","F",20,"SE","P","p","asp","asp_word"
6,"paneul",32,0,1149,"M1","pb",23,6092,"paneul","baneul","F",20,"SE","P","p","asp","len_word"
6,"pama",33,0,790,"M1","pb",23,6092,"pama","bama","F",20,"SE","P","p","asp","asp_word"
7,"paneul",34,0,947,"M1","pb",23,6092,"paneul","baneul","F",20,"SE","P","p","asp","len_word"
1,"pama",35,1,722,"M1","pb",23,6092,"pama","bama","F",20,"SE","P","b","len","asp_word"
3,"baneul",36,0,1477,"M1","pb",23,6092,"paneul","baneul","F",20,"SE","P","p","asp","len_word"
3,"paneul",37,1,924,"M1","pb",23,6092,"paneul","baneul","F",20,"SE","P","b","len","len_word"
1,"paneul",38,1,990,"M1","pb",23,6092,"paneul","baneul","F",20,"SE","P","b","len","len_word"
7,"baneul",39,0,1043,"M1","pb",23,6092,"paneul","baneul","F",20,"SE","P","p","asp","len_word"
2,"bama",40,1,711,"M1","pb",23,6092,"pama","bama","F",20,"SE","P","b","len","asp_word"
2,"baneul",41,1,958,"M1","pb",23,6092,"paneul","baneul","F",20,"SE","P","b","len","len_word"
1,"baneul",42,1,742,"M1","pb",23,6092,"paneul","baneul","F",20,"SE","P","b","len","len_word"
2,"pama",43,1,1025,"M1","pb",23,6092,"pama","bama","F",20,"SE","P","b","len","asp_word"
5,"baneul",44,1,1567,"M1","pb",23,6092,"paneul","baneul","F",20,"SE","P","b","len","len_word"
1,"pama",45,1,783,"M1","pb",23,6092,"pama","bama","F",20,"SE","P","b","len","asp_word"
4,"pama",46,0,1042,"M1","pb",23,6092,"pama","bama","F",20,"SE","P","p","asp","asp_word"
4,"pama",47,0,915,"M1","pb",23,6092,"pama","bama","F",20,"SE","P","p","asp","asp_word"
5,"paneul",48,0,1149,"M1","pb",23,6092,"paneul","baneul","F",20,"SE","P","p","asp","len_word"
5,"baneul",49,1,1012,"M1","pb",23,6092,"paneul","baneul","F",20,"SE","P","b","len","len_word"
6,"bama",50,0,900,"M1","pb",23,6092,"pama","bama","F",20,"SE","P","p","asp","asp_word"
6,"bama",51,0,916,"M1","pb",23,6092,"pama","bama","F",20,"SE","P","p","asp","asp_word"
4,"bama",52,0,1693,"M1","pb",23,6092,"pama","bama","F",20,"SE","P","p","asp","asp_word"
1,"baneul",53,1,982,"M1","pb",23,6092,"paneul","baneul","F",20,"SE","P","b","len","len_word"
3,"bama",54,0,1803,"M1","pb",23,6092,"pama","bama","F",20,"SE","P","p","asp","asp_word"
4,"paneul",55,1,1343,"M1","pb",23,6092,"paneul","baneul","F",20,"SE","P","b","len","len_word"
7,"domang",56,1,3023,"F1","td",23,6092,"tomang","domang","F",20,"SE","P","d","len","len_word"
2,"domang",57,1,1544,"F1","td",23,6092,"tomang","domang","F",20,"SE","P","d","len","len_word"
7,"dongmil",58,0,1651,"F1","td",23,6092,"tongmil","dongmil","F",20,"SE","P","t","asp","asp_word"
1,"tongmil",59,1,1380,"F1","td",23,6092,"tongmil","dongmil","F",20,"SE","P","d","len","asp_word"
7,"domang",60,1,1888,"F1","td",23,6092,"tomang","domang","F",20,"SE","P","d","len","len_word"
3,"tomang",61,1,813,"F1","td",23,6092,"tomang","domang","F",20,"SE","P","d","len","len_word"
2,"tongmil",62,0,1701,"F1","td",23,6092,"tongmil","dongmil","F",20,"SE","P","t","asp","asp_word"
4,"dongmil",63,1,1010,"F1","td",23,6092,"tongmil","dongmil","F",20,"SE","P","d","len","asp_word"
3,"tomang",64,1,1093,"F1","td",23,6092,"tomang","domang","F",20,"SE","P","d","len","len_word"
7,"tongmil",65,0,1150,"F1","td",23,6092,"tongmil","dongmil","F",20,"SE","P","t","asp","asp_word"
3,"dongmil",66,1,1179,"F1","td",23,6092,"tongmil","dongmil","F",20,"SE","P","d","len","asp_word"
6,"dongmil",67,1,2205,"F1","td",23,6092,"tongmil","dongmil","F",20,"SE","P","d","len","asp_word"
4,"dongmil",68,1,943,"F1","td",23,6092,"tongmil","dongmil","F",20,"SE","P","d","len","asp_word"
6,"domang",69,1,1108,"F1","td",23,6092,"tomang","domang","F",20,"SE","P","d","len","len_word"
5,"domang",70,1,991,"F1","td",23,6092,"tomang","domang","F",20,"SE","P","d","len","len_word"
3,"domang",71,1,811,"F1","td",23,6092,"tomang","domang","F",20,"SE","P","d","len","len_word"
2,"dongmil",72,1,3109,"F1","td",23,6092,"tongmil","dongmil","F",20,"SE","P","d","len","asp_word"
7,"dongmil",73,0,1575,"F1","td",23,6092,"tongmil","dongmil","F",20,"SE","P","t","asp","asp_word"
2,"tomang",74,1,873,"F1","td",23,6092,"tomang","domang","F",20,"SE","P","d","len","len_word"
6,"tomang",75,0,1081,"F1","td",23,6092,"tomang","domang","F",20,"SE","P","t","asp","len_word"
3,"tongmil",76,1,916,"F1","td",23,6092,"tongmil","dongmil","F",20,"SE","P","d","len","asp_word"
5,"tomang",77,0,1065,"F1","td",23,6092,"tomang","domang","F",20,"SE","P","t","asp","len_word"
3,"domang",78,1,851,"F1","td",23,6092,"tomang","domang","F",20,"SE","P","d","len","len_word"
4,"domang",79,1,686,"F1","td",23,6092,"tomang","domang","F",20,"SE","P","d","len","len_word"
5,"tongmil",80,0,842,"F1","td",23,6092,"tongmil","dongmil","F",20,"SE","P","t","asp","asp_word"
6,"tomang",81,0,890,"F1","td",23,6092,"tomang","domang","F",20,"SE","P","t","asp","len_word"
2,"tongmil",82,1,914,"F1","td",23,6092,"tongmil","dongmil","F",20,"SE","P","d","len","asp_word"
7,"tomang",83,0,618,"F1","td",23,6092,"tomang","domang","F",20,"SE","P","t","asp","len_word"
2,"domang",84,1,737,"F1","td",23,6092,"tomang","domang","F",20,"SE","P","d","len","len_word"
3,"dongmil",85,1,963,"F1","td",23,6092,"tongmil","dongmil","F",20,"SE","P","d","len","asp_word"
4,"domang",86,1,857,"F1","td",23,6092,"tomang","domang","F",20,"SE","P","d","len","len_word"
5,"tomang",87,0,820,"F1","td",23,6092,"tomang","domang","F",20,"SE","P","t","asp","len_word"
6,"tongmil",88,0,988,"F1","td",23,6092,"tongmil","dongmil","F",20,"SE","P","t","asp","asp_word"
1,"tomang",89,1,711,"F1","td",23,6092,"tomang","domang","F",20,"SE","P","d","len","len_word"
4,"tongmil",90,0,772,"F1","td",23,6092,"tongmil","dongmil","F",20,"SE","P","t","asp","asp_word"
1,"tongmil",91,1,779,"F1","td",23,6092,"tongmil","dongmil","F",20,"SE","P","d","len","asp_word"
1,"dongmil",92,1,1060,"F1","td",23,6092,"tongmil","dongmil","F",20,"SE","P","d","len","asp_word"
4,"tomang",93,0,841,"F1","td",23,6092,"tomang","domang","F",20,"SE","P","t","asp","len_word"
5,"tongmil",94,0,1042,"F1","td",23,6092,"tongmil","dongmil","F",20,"SE","P","t","asp","asp_word"
6,"tongmil",95,0,995,"F1","td",23,6092,"tongmil","dongmil","F",20,"SE","P","t","asp","asp_word"
6,"dongmil",96,0,802,"F1","td",23,6092,"tongmil","dongmil","F",20,"SE","P","t","asp","asp_word"
2,"dongmil",97,1,1092,"F1","td",23,6092,"tongmil","dongmil","F",20,"SE","P","d","len","asp_word"
1,"dongmil",98,1,845,"F1","td",23,6092,"tongmil","dongmil","F",20,"SE","P","d","len","asp_word"
5,"dongmil",99,0,1116,"F1","td",23,6092,"tongmil","dongmil","F",20,"SE","P","t","asp","asp_word"
1,"domang",100,1,761,"F1","td",23,6092,"tomang","domang","F",20,"SE","P","d","len","len_word"
1,"tomang",101,1,688,"F1","td",23,6092,"tomang","domang","F",20,"SE","P","d","len","len_word"
7,"tongmil",102,0,802,"F1","td",23,6092,"tongmil","dongmil","F",20,"SE","P","t","asp","asp_word"
6,"domang",103,0,819,"F1","td",23,6092,"tomang","domang","F",20,"SE","P","t","asp","len_word"
4,"tongmil",104,0,1153,"F1","td",23,6092,"tongmil","dongmil","F",20,"SE","P","t","asp","asp_word"
1,"domang",105,1,807,"F1","td",23,6092,"tomang","domang","F",20,"SE","P","d","len","len_word"
5,"dongmil",106,0,941,"F1","td",23,6092,"tongmil","dongmil","F",20,"SE","P","t","asp","asp_word"
7,"tomang",107,0,795,"F1","td",23,6092,"tomang","domang","F",20,"SE","P","t","asp","len_word"
3,"tongmil",108,1,907,"F1","td",23,6092,"tongmil","dongmil","F",20,"SE","P","d","len","asp_word"
5,"domang",109,0,1264,"F1","td",23,6092,"tomang","domang","F",20,"SE","P","t","asp","len_word"
2,"tomang",110,1,886,"F1","td",23,6092,"tomang","domang","F",20,"SE","P","d","len","len_word"
4,"tomang",111,1,2140,"F1","td",23,6092,"tomang","domang","F",20,"SE","P","d","len","len_word"
2,"bama",0,1,800,"M1","pb",24,6198,"pama","bama","F",20,"SE","P","b","len","asp_word"
1,"baneul",1,1,992,"M1","pb",24,6198,"paneul","baneul","F",20,"SE","P","b","len","len_word"
3,"baneul",2,1,991,"M1","pb",24,6198,"paneul","baneul","F",20,"SE","P","b","len","len_word"
4,"bama",3,0,751,"M1","pb",24,6198,"pama","bama","F",20,"SE","P","p","asp","asp_word"
5,"baneul",4,0,771,"M1","pb",24,6198,"paneul","baneul","F",20,"SE","P","p","asp","len_word"
3,"bama",5,1,702,"M1","pb",24,6198,"pama","bama","F",20,"SE","P","b","len","asp_word"
4,"paneul",6,1,771,"M1","pb",24,6198,"paneul","baneul","F",20,"SE","P","b","len","len_word"
7,"baneul",7,0,895,"M1","pb",24,6198,"paneul","baneul","F",20,"SE","P","p","asp","len_word"
5,"baneul",8,1,1357,"M1","pb",24,6198,"paneul","baneul","F",20,"SE","P","b","len","len_word"
6,"paneul",9,0,772,"M1","pb",24,6198,"paneul","baneul","F",20,"SE","P","p","asp","len_word"
5,"paneul",10,0,752,"M1","pb",24,6198,"paneul","baneul","F",20,"SE","P","p","asp","len_word"
7,"bama",11,0,915,"M1","pb",24,6198,"pama","bama","F",20,"SE","P","p","asp","asp_word"
7,"paneul",12,0,757,"M1","pb",24,6198,"paneul","baneul","F",20,"SE","P","p","asp","len_word"
1,"bama",13,1,938,"M1","pb",24,6198,"pama","bama","F",20,"SE","P","b","len","asp_word"
5,"bama",14,0,838,"M1","pb",24,6198,"pama","bama","F",20,"SE","P","p","asp","asp_word"
2,"bama",15,1,901,"M1","pb",24,6198,"pama","bama","F",20,"SE","P","b","len","asp_word"
3,"baneul",16,1,758,"M1","pb",24,6198,"paneul","baneul","F",20,"SE","P","b","len","len_word"
5,"pama",17,0,613,"M1","pb",24,6198,"pama","bama","F",20,"SE","P","p","asp","asp_word"
6,"baneul",18,0,701,"M1","pb",24,6198,"paneul","baneul","F",20,"SE","P","p","asp","len_word"
4,"pama",19,0,710,"M1","pb",24,6198,"pama","bama","F",20,"SE","P","p","asp","asp_word"
2,"baneul",20,1,736,"M1","pb",24,6198,"paneul","baneul","F",20,"SE","P","b","len","len_word"
7,"bama",21,0,689,"M1","pb",24,6198,"pama","bama","F",20,"SE","P","p","asp","asp_word"
4,"paneul",22,1,580,"M1","pb",24,6198,"paneul","baneul","F",20,"SE","P","b","len","len_word"
6,"pama",23,0,620,"M1","pb",24,6198,"pama","bama","F",20,"SE","P","p","asp","asp_word"
3,"bama",24,1,688,"M1","pb",24,6198,"pama","bama","F",20,"SE","P","b","len","asp_word"
7,"pama",25,0,695,"M1","pb",24,6198,"pama","bama","F",20,"SE","P","p","asp","asp_word"
7,"baneul",26,0,817,"M1","pb",24,6198,"paneul","baneul","F",20,"SE","P","p","asp","len_word"
1,"paneul",27,1,607,"M1","pb",24,6198,"paneul","baneul","F",20,"SE","P","b","len","len_word"
6,"bama",28,0,710,"M1","pb",24,6198,"pama","bama","F",20,"SE","P","p","asp","asp_word"
5,"bama",29,1,880,"M1","pb",24,6198,"pama","bama","F",20,"SE","P","b","len","asp_word"
1,"paneul",30,1,906,"M1","pb",24,6198,"paneul","baneul","F",20,"SE","P","b","len","len_word"
1,"pama",31,1,785,"M1","pb",24,6198,"pama","bama","F",20,"SE","P","b","len","asp_word"
3,"pama",32,1,764,"M1","pb",24,6198,"pama","bama","F",20,"SE","P","b","len","asp_word"
2,"pama",33,1,675,"M1","pb",24,6198,"pama","bama","F",20,"SE","P","b","len","asp_word"
4,"pama",34,1,952,"M1","pb",24,6198,"pama","bama","F",20,"SE","P","b","len","asp_word"
4,"baneul",35,1,755,"M1","pb",24,6198,"paneul","baneul","F",20,"SE","P","b","len","len_word"
3,"pama",36,1,876,"M1","pb",24,6198,"pama","bama","F",20,"SE","P","b","len","asp_word"
7,"paneul",37,0,874,"M1","pb",24,6198,"paneul","baneul","F",20,"SE","P","p","asp","len_word"
2,"pama",38,1,917,"M1","pb",24,6198,"pama","bama","F",20,"SE","P","b","len","asp_word"
1,"pama",39,1,702,"M1","pb",24,6198,"pama","bama","F",20,"SE","P","b","len","asp_word"
2,"paneul",40,1,885,"M1","pb",24,6198,"paneul","baneul","F",20,"SE","P","b","len","len_word"
4,"bama",41,0,678,"M1","pb",24,6198,"pama","bama","F",20,"SE","P","p","asp","asp_word"
7,"pama",42,0,817,"M1","pb",24,6198,"pama","bama","F",20,"SE","P","p","asp","asp_word"
1,"baneul",43,1,707,"M1","pb",24,6198,"paneul","baneul","F",20,"SE","P","b","len","len_word"
2,"paneul",44,1,631,"M1","pb",24,6198,"paneul","baneul","F",20,"SE","P","b","len","len_word"
4,"baneul",45,1,846,"M1","pb",24,6198,"paneul","baneul","F",20,"SE","P","b","len","len_word"
3,"paneul",46,1,696,"M1","pb",24,6198,"paneul","baneul","F",20,"SE","P","b","len","len_word"
6,"bama",47,0,717,"M1","pb",24,6198,"pama","bama","F",20,"SE","P","p","asp","asp_word"
1,"bama",48,1,680,"M1","pb",24,6198,"pama","bama","F",20,"SE","P","b","len","asp_word"
3,"paneul",49,1,656,"M1","pb",24,6198,"paneul","baneul","F",20,"SE","P","b","len","len_word"
6,"baneul",50,0,726,"M1","pb",24,6198,"paneul","baneul","F",20,"SE","P","p","asp","len_word"
6,"pama",51,0,704,"M1","pb",24,6198,"pama","bama","F",20,"SE","P","p","asp","asp_word"
2,"baneul",52,1,686,"M1","pb",24,6198,"paneul","baneul","F",20,"SE","P","b","len","len_word"
5,"paneul",53,1,602,"M1","pb",24,6198,"paneul","baneul","F",20,"SE","P","b","len","len_word"
6,"paneul",54,0,904,"M1","pb",24,6198,"paneul","baneul","F",20,"SE","P","p","asp","len_word"
5,"pama",55,0,939,"M1","pb",24,6198,"pama","bama","F",20,"SE","P","p","asp","asp_word"
5,"tongmil",56,0,5136,"F1","td",24,6198,"tongmil","dongmil","F",20,"SE","P","t","asp","asp_word"
5,"domang",57,1,1164,"F1","td",24,6198,"tomang","domang","F",20,"SE","P","d","len","len_word"
6,"tomang",58,0,994,"F1","td",24,6198,"tomang","domang","F",20,"SE","P","t","asp","len_word"
7,"tomang",59,0,658,"F1","td",24,6198,"tomang","domang","F",20,"SE","P","t","asp","len_word"
5,"domang",60,1,692,"F1","td",24,6198,"tomang","domang","F",20,"SE","P","d","len","len_word"
1,"tongmil",61,1,1319,"F1","td",24,6198,"tongmil","dongmil","F",20,"SE","P","d","len","asp_word"
6,"tongmil",62,0,778,"F1","td",24,6198,"tongmil","dongmil","F",20,"SE","P","t","asp","asp_word"
5,"tomang",63,1,909,"F1","td",24,6198,"tomang","domang","F",20,"SE","P","d","len","len_word"
6,"tongmil",64,0,2255,"F1","td",24,6198,"tongmil","dongmil","F",20,"SE","P","t","asp","asp_word"
4,"dongmil",65,1,974,"F1","td",24,6198,"tongmil","dongmil","F",20,"SE","P","d","len","asp_word"
2,"domang",66,1,944,"F1","td",24,6198,"tomang","domang","F",20,"SE","P","d","len","len_word"
7,"domang",67,0,872,"F1","td",24,6198,"tomang","domang","F",20,"SE","P","t","asp","len_word"
6,"domang",68,0,902,"F1","td",24,6198,"tomang","domang","F",20,"SE","P","t","asp","len_word"
1,"dongmil",69,1,1023,"F1","td",24,6198,"tongmil","dongmil","F",20,"SE","P","d","len","asp_word"
5,"tongmil",70,0,841,"F1","td",24,6198,"tongmil","dongmil","F",20,"SE","P","t","asp","asp_word"
3,"tongmil",71,1,937,"F1","td",24,6198,"tongmil","dongmil","F",20,"SE","P","d","len","asp_word"
4,"domang",72,1,870,"F1","td",24,6198,"tomang","domang","F",20,"SE","P","d","len","len_word"
1,"tomang",73,1,728,"F1","td",24,6198,"tomang","domang","F",20,"SE","P","d","len","len_word"
2,"dongmil",74,1,944,"F1","td",24,6198,"tongmil","dongmil","F",20,"SE","P","d","len","asp_word"
5,"tomang",75,1,845,"F1","td",24,6198,"tomang","domang","F",20,"SE","P","d","len","len_word"
3,"dongmil",76,1,979,"F1","td",24,6198,"tongmil","dongmil","F",20,"SE","P","d","len","asp_word"
6,"dongmil",77,0,1032,"F1","td",24,6198,"tongmil","dongmil","F",20,"SE","P","t","asp","asp_word"
4,"tomang",78,1,892,"F1","td",24,6198,"tomang","domang","F",20,"SE","P","d","len","len_word"
7,"tongmil",79,0,887,"F1","td",24,6198,"tongmil","dongmil","F",20,"SE","P","t","asp","asp_word"
5,"dongmil",80,1,1034,"F1","td",24,6198,"tongmil","dongmil","F",20,"SE","P","d","len","asp_word"
6,"dongmil",81,0,3627,"F1","td",24,6198,"tongmil","dongmil","F",20,"SE","P","t","asp","asp_word"
3,"domang",82,1,1002,"F1","td",24,6198,"tomang","domang","F",20,"SE","P","d","len","len_word"
2,"tomang",83,1,900,"F1","td",24,6198,"tomang","domang","F",20,"SE","P","d","len","len_word"
4,"dongmil",84,1,1125,"F1","td",24,6198,"tongmil","dongmil","F",20,"SE","P","d","len","asp_word"
3,"tomang",85,1,821,"F1","td",24,6198,"tomang","domang","F",20,"SE","P","d","len","len_word"
1,"tongmil",86,1,1199,"F1","td",24,6198,"tongmil","dongmil","F",20,"SE","P","d","len","asp_word"
6,"tomang",87,0,840,"F1","td",24,6198,"tomang","domang","F",20,"SE","P","t","asp","len_word"
1,"domang",88,1,1642,"F1","td",24,6198,"tomang","domang","F",20,"SE","P","d","len","len_word"
2,"tongmil",89,1,4158,"F1","td",24,6198,"tongmil","dongmil","F",20,"SE","P","d","len","asp_word"
6,"domang",90,0,906,"F1","td",24,6198,"tomang","domang","F",20,"SE","P","t","asp","len_word"
7,"domang",91,0,764,"F1","td",24,6198,"tomang","domang","F",20,"SE","P","t","asp","len_word"
3,"tongmil",92,0,1253,"F1","td",24,6198,"tongmil","dongmil","F",20,"SE","P","t","asp","asp_word"
4,"tongmil",93,0,992,"F1","td",24,6198,"tongmil","dongmil","F",20,"SE","P","t","asp","asp_word"
3,"dongmil",94,1,1253,"F1","td",24,6198,"tongmil","dongmil","F",20,"SE","P","d","len","asp_word"
3,"domang",95,1,978,"F1","td",24,6198,"tomang","domang","F",20,"SE","P","d","len","len_word"
5,"dongmil",96,0,1016,"F1","td",24,6198,"tongmil","dongmil","F",20,"SE","P","t","asp","asp_word"
1,"dongmil",97,1,1325,"F1","td",24,6198,"tongmil","dongmil","F",20,"SE","P","d","len","asp_word"
3,"tomang",98,1,1182,"F1","td",24,6198,"tomang","domang","F",20,"SE","P","d","len","len_word"
4,"domang",99,1,1460,"F1","td",24,6198,"tomang","domang","F",20,"SE","P","d","len","len_word"
7,"tomang",100,0,860,"F1","td",24,6198,"tomang","domang","F",20,"SE","P","t","asp","len_word"
7,"dongmil",101,0,1408,"F1","td",24,6198,"tongmil","dongmil","F",20,"SE","P","t","asp","asp_word"
7,"tongmil",102,0,857,"F1","td",24,6198,"tongmil","dongmil","F",20,"SE","P","t","asp","asp_word"
2,"tongmil",103,1,1074,"F1","td",24,6198,"tongmil","dongmil","F",20,"SE","P","d","len","asp_word"
1,"domang",104,1,1700,"F1","td",24,6198,"tomang","domang","F",20,"SE","P","d","len","len_word"
2,"tomang",105,1,922,"F1","td",24,6198,"tomang","domang","F",20,"SE","P","d","len","len_word"
4,"tongmil",106,0,1325,"F1","td",24,6198,"tongmil","dongmil","F",20,"SE","P","t","asp","asp_word"
7,"dongmil",107,0,920,"F1","td",24,6198,"tongmil","dongmil","F",20,"SE","P","t","asp","asp_word"
2,"domang",108,1,1231,"F1","td",24,6198,"tomang","domang","F",20,"SE","P","d","len","len_word"
4,"tomang",109,0,685,"F1","td",24,6198,"tomang","domang","F",20,"SE","P","t","asp","len_word"
2,"dongmil",110,1,993,"F1","td",24,6198,"tongmil","dongmil","F",20,"SE","P","d","len","asp_word"
1,"tomang",111,1,867,"F1","td",24,6198,"tomang","domang","F",20,"SE","P","d","len","len_word"
7,"pama",0,0,611,"M1","pb",25,4567,"pama","bama","M",20,"SE","P","p","asp","asp_word"
3,"baneul",1,1,674,"M1","pb",25,4567,"paneul","baneul","M",20,"SE","P","b","len","len_word"
7,"paneul",2,0,540,"M1","pb",25,4567,"paneul","baneul","M",20,"SE","P","p","asp","len_word"
1,"pama",3,1,925,"M1","pb",25,4567,"pama","bama","M",20,"SE","P","b","len","asp_word"
4,"bama",4,0,699,"M1","pb",25,4567,"pama","bama","M",20,"SE","P","p","asp","asp_word"
6,"pama",5,0,553,"M1","pb",25,4567,"pama","bama","M",20,"SE","P","p","asp","asp_word"
6,"bama",6,0,577,"M1","pb",25,4567,"pama","bama","M",20,"SE","P","p","asp","asp_word"
1,"bama",7,1,607,"M1","pb",25,4567,"pama","bama","M",20,"SE","P","b","len","asp_word"
4,"bama",8,0,601,"M1","pb",25,4567,"pama","bama","M",20,"SE","P","p","asp","asp_word"
4,"baneul",9,0,1374,"M1","pb",25,4567,"paneul","baneul","M",20,"SE","P","p","asp","len_word"
2,"pama",10,1,827,"M1","pb",25,4567,"pama","bama","M",20,"SE","P","b","len","asp_word"
3,"bama",11,0,740,"M1","pb",25,4567,"pama","bama","M",20,"SE","P","p","asp","asp_word"
6,"paneul",12,0,561,"M1","pb",25,4567,"paneul","baneul","M",20,"SE","P","p","asp","len_word"
3,"pama",13,1,784,"M1","pb",25,4567,"pama","bama","M",20,"SE","P","b","len","asp_word"
5,"bama",14,0,630,"M1","pb",25,4567,"pama","bama","M",20,"SE","P","p","asp","asp_word"
6,"baneul",15,0,595,"M1","pb",25,4567,"paneul","baneul","M",20,"SE","P","p","asp","len_word"
2,"paneul",16,1,649,"M1","pb",25,4567,"paneul","baneul","M",20,"SE","P","b","len","len_word"
2,"pama",17,1,726,"M1","pb",25,4567,"pama","bama","M",20,"SE","P","b","len","asp_word"
5,"baneul",18,1,841,"M1","pb",25,4567,"paneul","baneul","M",20,"SE","P","b","len","len_word"
5,"paneul",19,0,533,"M1","pb",25,4567,"paneul","baneul","M",20,"SE","P","p","asp","len_word"
5,"bama",20,0,626,"M1","pb",25,4567,"pama","bama","M",20,"SE","P","p","asp","asp_word"
5,"pama",21,0,587,"M1","pb",25,4567,"pama","bama","M",20,"SE","P","p","asp","asp_word"
7,"baneul",22,0,690,"M1","pb",25,4567,"paneul","baneul","M",20,"SE","P","p","asp","len_word"
4,"paneul",23,1,703,"M1","pb",25,4567,"paneul","baneul","M",20,"SE","P","b","len","len_word"
3,"bama",24,1,668,"M1","pb",25,4567,"pama","bama","M",20,"SE","P","b","len","asp_word"
1,"paneul",25,1,867,"M1","pb",25,4567,"paneul","baneul","M",20,"SE","P","b","len","len_word"
2,"baneul",26,1,719,"M1","pb",25,4567,"paneul","baneul","M",20,"SE","P","b","len","len_word"
7,"pama",27,0,560,"M1","pb",25,4567,"pama","bama","M",20,"SE","P","p","asp","asp_word"
6,"bama",28,0,671,"M1","pb",25,4567,"pama","bama","M",20,"SE","P","p","asp","asp_word"
1,"pama",29,1,549,"M1","pb",25,4567,"pama","bama","M",20,"SE","P","b","len","asp_word"
2,"paneul",30,1,564,"M1","pb",25,4567,"paneul","baneul","M",20,"SE","P","b","len","len_word"
3,"paneul",31,1,582,"M1","pb",25,4567,"paneul","baneul","M",20,"SE","P","b","len","len_word"
6,"baneul",32,0,621,"M1","pb",25,4567,"paneul","baneul","M",20,"SE","P","p","asp","len_word"
1,"baneul",33,1,603,"M1","pb",25,4567,"paneul","baneul","M",20,"SE","P","b","len","len_word"
7,"bama",34,0,514,"M1","pb",25,4567,"pama","bama","M",20,"SE","P","p","asp","asp_word"
2,"bama",35,1,606,"M1","pb",25,4567,"pama","bama","M",20,"SE","P","b","len","asp_word"
5,"paneul",36,0,558,"M1","pb",25,4567,"paneul","baneul","M",20,"SE","P","p","asp","len_word"
4,"pama",37,0,683,"M1","pb",25,4567,"pama","bama","M",20,"SE","P","p","asp","asp_word"
4,"baneul",38,1,663,"M1","pb",25,4567,"paneul","baneul","M",20,"SE","P","b","len","len_word"
3,"paneul",39,1,598,"M1","pb",25,4567,"paneul","baneul","M",20,"SE","P","b","len","len_word"
4,"pama",40,0,688,"M1","pb",25,4567,"pama","bama","M",20,"SE","P","p","asp","asp_word"
3,"pama",41,1,860,"M1","pb",25,4567,"pama","bama","M",20,"SE","P","b","len","asp_word"
3,"baneul",42,1,909,"M1","pb",25,4567,"paneul","baneul","M",20,"SE","P","b","len","len_word"
1,"bama",43,1,620,"M1","pb",25,4567,"pama","bama","M",20,"SE","P","b","len","asp_word"
4,"paneul",44,0,680,"M1","pb",25,4567,"paneul","baneul","M",20,"SE","P","p","asp","len_word"
5,"baneul",45,0,691,"M1","pb",25,4567,"paneul","baneul","M",20,"SE","P","p","asp","len_word"
1,"baneul",46,1,689,"M1","pb",25,4567,"paneul","baneul","M",20,"SE","P","b","len","len_word"
2,"baneul",47,1,642,"M1","pb",25,4567,"paneul","baneul","M",20,"SE","P","b","len","len_word"
5,"pama",48,0,550,"M1","pb",25,4567,"pama","bama","M",20,"SE","P","p","asp","asp_word"
2,"bama",49,1,641,"M1","pb",25,4567,"pama","bama","M",20,"SE","P","b","len","asp_word"
1,"paneul",50,1,622,"M1","pb",25,4567,"paneul","baneul","M",20,"SE","P","b","len","len_word"
7,"baneul",51,0,629,"M1","pb",25,4567,"paneul","baneul","M",20,"SE","P","p","asp","len_word"
6,"pama",52,0,687,"M1","pb",25,4567,"pama","bama","M",20,"SE","P","p","asp","asp_word"
7,"bama",53,0,510,"M1","pb",25,4567,"pama","bama","M",20,"SE","P","p","asp","asp_word"
7,"paneul",54,0,663,"M1","pb",25,4567,"paneul","baneul","M",20,"SE","P","p","asp","len_word"
6,"paneul",55,0,510,"M1","pb",25,4567,"paneul","baneul","M",20,"SE","P","p","asp","len_word"
6,"tongmil",56,0,857,"F1","td",25,4567,"tongmil","dongmil","M",20,"SE","P","t","asp","asp_word"
4,"tongmil",57,0,813,"F1","td",25,4567,"tongmil","dongmil","M",20,"SE","P","t","asp","asp_word"
7,"tongmil",58,0,580,"F1","td",25,4567,"tongmil","dongmil","M",20,"SE","P","t","asp","asp_word"
5,"dongmil",59,0,1332,"F1","td",25,4567,"tongmil","dongmil","M",20,"SE","P","t","asp","asp_word"
5,"domang",60,1,841,"F1","td",25,4567,"tomang","domang","M",20,"SE","P","d","len","len_word"
2,"dongmil",61,1,902,"F1","td",25,4567,"tongmil","dongmil","M",20,"SE","P","d","len","asp_word"
3,"tongmil",62,0,1210,"F1","td",25,4567,"tongmil","dongmil","M",20,"SE","P","t","asp","asp_word"
2,"domang",63,1,629,"F1","td",25,4567,"tomang","domang","M",20,"SE","P","d","len","len_word"
1,"tomang",64,1,861,"F1","td",25,4567,"tomang","domang","M",20,"SE","P","d","len","len_word"
3,"dongmil",65,1,898,"F1","td",25,4567,"tongmil","dongmil","M",20,"SE","P","d","len","asp_word"
4,"tomang",66,0,676,"F1","td",25,4567,"tomang","domang","M",20,"SE","P","t","asp","len_word"
4,"dongmil",67,1,1140,"F1","td",25,4567,"tongmil","dongmil","M",20,"SE","P","d","len","asp_word"
